seq;timestamp_ms;acc_x;acc_y;acc_z;gyro_x;gyro_y;gyro_z
1;0;-5.600818;-0.121057;8.020817;0.026942;-0.003870;-0.002930
2;10;-5.589435;-0.046726;8.022511;0.025454;-0.003138;-0.002504
3;20;-5.581021;-0.112187;8.035437;0.023290;-0.003657;0.001248
4;30;-5.614970;-0.153913;8.013811;0.028358;-0.007705;-0.004912
5;40;-5.601463;-0.169814;8.004082;0.033591;-0.018154;-0.002505
6;50;-5.631440;-0.153798;8.001689;0.041049;-0.024982;-0.002280
7;60;-5.625730;-0.165862;7.920432;0.046549;-0.037908;-0.003090
8;70;-5.607911;-0.123587;7.930110;0.050281;-0.028753;-0.006463
9;80;-5.612665;-0.061042;7.877051;0.035629;-0.017579;-0.010131
10;90;-5.613219;-0.051292;7.919327;0.024255;-0.008052;-0.002958
11;100;-5.642051;-0.062735;7.963922;0.013053;-0.000946;-0.002910
12;110;-5.635226;-0.038945;7.988552;0.004081;0.000344;-0.001939
13;120;-5.643904;-0.054764;8.005259;-0.007222;0.007510;-0.005791
14;130;-5.674193;-0.133006;7.989914;-0.013048;-0.008488;0.006026
15;140;-5.659809;-0.169702;8.069632;-0.000128;-0.015643;-0.000003
16;150;-5.603153;-0.128171;8.065027;0.015117;-0.019240;-0.004326
17;160;-5.633566;-0.114070;8.062306;0.015147;-0.012971;-0.005104
18;170;-5.643311;-0.103021;8.032073;0.011233;-0.015737;-0.010283
19;180;-5.614258;-0.081927;8.030265;0.014675;-0.019803;-0.006554
20;190;-5.670335;-0.096319;7.989151;0.018245;-0.023127;-0.012281
21;200;-5.611838;-0.062220;7.943185;0.016155;-0.020535;-0.006970
22;210;-5.633953;-0.032815;7.923517;0.012174;-0.011505;-0.004255
23;220;-5.658415;-0.078206;7.974771;0.020092;-0.002065;-0.005697
24;230;-5.699316;-0.070921;8.030129;0.028060;-0.014652;0.001452
25;240;-5.650794;-0.042868;8.042527;0.030589;-0.026114;0.001508
26;250;-5.581186;-0.017832;8.027663;0.021247;-0.022284;0.001807
27;260;-5.615983;-0.052298;8.048324;0.012076;-0.005973;0.004425
28;270;-5.654049;-0.144071;8.050584;0.014159;-0.008569;-0.000880
29;280;-5.635054;-0.129766;8.107037;0.018277;-0.020819;0.002656
30;290;-5.562676;-0.121207;8.008966;0.020250;-0.023361;-0.006543
31;300;-5.568080;-0.143178;7.985464;0.026910;-0.012514;-0.013137
32;310;-5.586062;-0.063874;7.942244;0.028908;-0.019003;-0.006634
33;320;-5.606449;-0.123597;7.911391;0.042647;-0.021870;-0.010527
34;330;-5.578928;-0.009905;7.920800;0.035264;-0.011939;-0.009215
35;340;-5.656836;0.061805;7.876472;0.019116;-0.006314;-0.011703
36;350;-5.700746;0.010673;7.913673;0.001264;-0.000629;-0.008212
37;360;-5.688352;-0.007838;7.903194;0.001000;0.001859;-0.004997
38;370;-5.669263;-0.002299;7.917089;0.012064;0.003463;0.001289
39;380;-5.655788;0.045483;7.965897;0.007767;0.002450;0.008792
40;390;-5.624253;0.033344;7.969352;0.002212;0.002841;0.011153
41;400;-5.596759;-0.028651;7.996497;-0.011776;-0.000456;0.008052
42;410;-5.588341;-0.096276;8.009745;-0.011296;-0.003048;0.012631
43;420;-5.619521;-0.165753;8.036719;-0.003144;-0.011793;0.011895
44;430;-5.559423;-0.157678;8.037888;0.007221;-0.007497;0.005810
45;440;-5.543909;-0.118149;8.045607;0.007145;-0.001177;0.001116
46;450;-5.578488;-0.161443;8.024036;0.008217;0.003790;-0.002333
47;460;-5.639421;-0.077659;8.034608;0.008588;0.001249;-0.001651
48;470;-5.607688;-0.090269;8.038213;0.007036;-0.001126;-0.002781
49;480;-5.607679;-0.089988;8.038223;0.004406;0.000960;-0.003607
50;490;-5.580416;-0.069471;8.035005;0.000700;0.007506;-0.004131
51;500;-5.653957;-0.123716;7.985086;0.000738;0.004347;-0.001783
52;510;-5.598721;-0.165357;8.009368;0.002117;-0.005762;-0.002953
53;520;-5.602490;-0.131621;8.003039;0.003669;-0.003387;-0.001823
54;530;-5.629723;-0.152297;8.006277;0.000083;-0.005546;-0.008660
55;540;-5.608641;-0.155765;7.979046;-0.002213;-0.002842;-0.011152
56;550;-5.571053;-0.138459;8.048906;-0.004875;-0.007024;-0.011179
57;560;-5.569120;-0.147048;8.007739;0.004155;-0.005205;-0.010600
58;570;-5.593698;-0.110917;8.028826;0.004115;-0.002045;-0.012947
59;580;-5.606120;-0.093313;8.039273;0.002483;0.001897;-0.018770
60;590;-5.648826;-0.070649;8.004641;0.001524;-0.003120;-0.011425
61;600;-5.616638;-0.084694;8.008539;-0.005429;-0.007544;-0.017301
62;610;-5.623230;-0.109551;7.984224;-0.009402;0.001489;-0.014611
63;620;-5.590213;-0.132361;7.946168;-0.014291;0.003117;-0.015581
64;630;-5.592514;-0.126442;7.987034;-0.012021;0.019268;-0.019379
65;640;-5.612250;-0.141302;7.930126;-0.004117;0.028712;-0.020840
66;650;-5.618780;-0.108931;7.921875;0.001170;0.030813;-0.019981
67;660;-5.608263;-0.063431;7.968659;-0.005754;0.047574;-0.017242
68;670;-5.615373;-0.039642;7.917453;-0.015495;0.063361;-0.020765
69;680;-5.735655;-0.082190;7.960984;-0.004510;0.046171;-0.012082
70;690;-5.776697;-0.103217;8.062378;-0.003493;0.007214;-0.006078
71;700;-5.668509;-0.078569;8.033158;-0.007050;-0.020071;-0.005852
72;710;-5.538239;-0.139388;8.007447;-0.002268;-0.021644;-0.008771
73;720;-5.579268;-0.198995;8.003943;0.012271;-0.017038;-0.012880
74;730;-5.574007;-0.149084;7.981220;0.026918;-0.012483;-0.013097
75;740;-5.607452;-0.109032;7.930234;0.028289;-0.013163;-0.017405
76;750;-5.564007;-0.049232;7.935387;0.007620;-0.008479;-0.020196
77;760;-5.591266;-0.071261;7.938518;-0.013361;0.001851;-0.022120
78;770;-5.605430;-0.120907;7.889031;-0.026469;0.015363;-0.024700
79;780;-5.601770;-0.092579;7.953891;-0.018359;0.024714;-0.018365
80;790;-5.687147;-0.083945;8.062023;-0.012349;0.031169;-0.019279
81;800;-5.644241;-0.052224;8.113057;-0.009448;0.026601;-0.021662
82;810;-5.670032;-0.035747;8.222189;-0.015686;0.019471;-0.015189
83;820;-5.735695;-0.086920;8.285915;-0.018096;0.000261;-0.016855
84;830;-5.712459;-0.099767;8.217557;-0.013687;-0.020731;-0.015740
85;840;-5.655533;-0.206918;8.184071;0.008555;-0.038716;-0.007895
86;850;-5.618041;-0.152538;8.076631;0.017751;-0.033042;-0.015198
87;860;-5.590015;-0.113058;7.985364;0.030176;-0.010128;-0.017935
88;870;-5.672470;-0.090671;7.964311;0.038832;0.000521;-0.018817
89;880;-5.716907;-0.057529;7.971049;0.035972;0.001927;-0.014085
90;890;-5.660481;-0.022306;7.923603;0.032828;0.000327;-0.018681
91;900;-5.612560;-0.003449;7.892971;0.012769;0.008612;-0.013811
92;910;-5.588865;-0.039998;7.871140;0.001251;0.027597;-0.013723
93;920;-5.645747;-0.017544;7.934458;-0.005993;0.041335;-0.020321
94;930;-5.589365;-0.029166;8.021938;-0.025821;0.061283;0.004068
95;940;-5.680858;-0.142605;8.050653;-0.028740;0.066617;-0.006863
96;950;-5.704710;-0.242232;8.194665;-0.011504;0.044051;-0.003064
97;960;-5.757044;-0.317263;8.205830;0.016007;-0.002365;-0.003714
98;970;-5.645864;-0.297352;8.136331;0.042311;-0.044273;-0.007940
99;980;-5.615005;-0.255362;8.047051;0.060096;-0.065549;-0.011338
100;990;-5.581083;-0.155894;7.976144;0.063594;-0.065720;-0.019357
101;1000;-5.596604;-0.140491;7.875961;0.046923;-0.057567;-0.026420
102;1010;-5.587772;-0.015487;7.783216;0.028894;-0.042468;-0.029988
103;1020;-5.683212;-0.034084;7.756125;0.011381;-0.017422;-0.030600
104;1030;-5.726450;-0.004336;7.763700;-0.001257;-0.012789;-0.027831
105;1040;-5.739521;0.019889;7.816339;-0.009834;-0.014070;-0.026190
106;1050;-5.712579;0.046047;7.855579;-0.024228;-0.012488;-0.018996
107;1060;-5.675549;-0.003342;7.866461;-0.028504;-0.007241;-0.012315
108;1070;-5.707886;-0.067915;7.934914;-0.025092;-0.001856;-0.011723
109;1080;-5.667466;-0.067569;7.921776;-0.017176;-0.008077;-0.009237
110;1090;-5.700725;-0.113402;7.900897;-0.010088;-0.012331;-0.009660
111;1100;-5.620944;-0.101174;7.916453;-0.000804;-0.019231;-0.011480
112;1110;-5.616844;-0.117469;7.834234;0.010088;-0.008103;-0.012235
113;1120;-5.646870;-0.112334;7.789352;0.017181;0.000177;-0.014261
114;1130;-5.618107;-0.098906;7.744741;0.023441;0.004156;-0.018390
115;1140;-5.648058;-0.028346;7.758695;0.022994;0.003584;-0.020611
116;1150;-5.675393;0.025795;7.689357;0.017712;0.013994;-0.023068
117;1160;-5.682687;0.067464;7.723215;0.015573;0.019749;-0.020128
118;1170;-5.719635;0.096582;7.801047;0.017612;0.032084;-0.016039
119;1180;-5.740798;0.157030;7.844378;0.017843;0.031995;-0.008265
120;1190;-5.735900;0.099861;7.897385;0.035392;0.031287;0.002468
121;1200;-5.696653;0.089191;7.972097;0.055579;0.022244;0.014844
122;1210;-5.721958;0.114157;8.081430;0.067072;0.011956;0.024978
123;1220;-5.690806;0.108059;8.084555;0.057895;0.006280;0.032291
124;1230;-5.626755;0.006154;8.122315;0.048219;0.003185;0.035030
125;1240;-5.609951;-0.040295;8.118613;0.036123;0.002819;0.031381
126;1250;-5.568133;-0.123650;8.094213;0.039083;0.007628;0.029752
127;1260;-5.517189;-0.199574;8.010915;0.051209;0.018098;0.020825
128;1270;-5.497779;-0.131912;8.041190;0.051861;0.031856;0.015885
129;1280;-5.607185;-0.078809;7.996757;0.045044;0.039878;0.012278
130;1290;-5.659920;-0.085141;8.066679;0.021700;0.030932;0.008669
131;1300;-5.674707;-0.065905;8.075418;-0.005042;0.022866;0.003647
132;1310;-5.683001;-0.090200;8.049899;-0.013444;0.019125;-0.001823
133;1320;-5.692675;-0.106461;8.065987;-0.012843;0.016518;0.006642
134;1330;-5.762708;-0.121977;8.123132;-0.008454;0.004953;0.004688
135;1340;-5.733954;-0.109464;8.078413;-0.003351;0.003273;0.013458
136;1350;-5.674425;-0.183347;8.109861;0.001865;0.002278;0.012791
137;1360;-5.628449;-0.221619;8.061941;0.004168;-0.000409;0.015295
138;1370;-5.617131;-0.230444;8.093406;0.004439;-0.009173;0.012909
139;1380;-5.599645;-0.198988;8.059891;0.001966;-0.015829;0.005794
140;1390;-5.579475;-0.258900;8.016151;-0.003090;-0.023562;0.000189
141;1400;-5.544010;-0.280386;7.979910;-0.001446;-0.026756;-0.007308
142;1410;-5.522050;-0.201433;7.922809;0.001032;-0.013116;-0.014334
143;1420;-5.583464;-0.184915;7.874190;0.000160;-0.001744;-0.020414
144;1430;-5.666750;-0.174627;7.983725;-0.001706;0.001521;-0.020691
145;1440;-5.690112;-0.147989;7.962954;-0.008793;-0.006748;-0.018668
146;1450;-5.651102;-0.139460;7.991436;-0.016813;-0.006761;-0.024259
147;1460;-5.642598;-0.127512;7.974467;-0.030049;0.000483;-0.029992
148;1470;-5.724321;-0.128384;8.042499;-0.031752;0.000560;-0.024026
149;1480;-5.675066;-0.196503;8.043013;-0.022092;-0.008881;-0.025116
150;1490;-5.691526;-0.147477;8.046843;-0.009738;-0.004748;-0.025457
151;1500;-5.693083;-0.058889;8.058055;-0.004962;-0.012581;-0.027540
152;1510;-5.731862;-0.063340;8.072273;-0.002710;-0.018380;-0.026575
153;1520;-5.732304;-0.039786;8.025715;-0.008960;-0.041146;-0.020015
154;1530;-5.712579;-0.011376;7.993910;-0.018088;-0.042973;-0.024491
155;1540;-5.694809;0.033461;7.871981;-0.027323;-0.026698;-0.021972
156;1550;-5.723601;0.034560;7.827915;-0.033476;-0.011916;-0.016393
157;1560;-5.740456;0.082642;7.831697;-0.038534;0.004674;-0.011911
158;1570;-5.761053;0.155327;7.786723;-0.061223;0.008726;-0.007113
159;1580;-5.720223;0.143839;7.731423;-0.094512;0.010934;0.006951
160;1590;-5.726025;0.022351;7.694889;-0.110753;0.031406;0.013823
161;1600;-5.719062;0.086323;7.693225;-0.135322;0.054356;0.018362
162;1610;-5.583847;0.071860;7.753112;-0.168227;0.085289;0.033111
163;1620;-5.575041;0.062318;7.934050;-0.214422;0.126570;0.043842
164;1630;-5.510108;-0.027632;8.143545;-0.294497;0.167861;0.042325
165;1640;-5.512573;-0.099609;8.343295;-0.378595;0.199232;0.053880
166;1650;-5.718727;-0.397547;8.557926;-0.441351;0.176380;0.033543
167;1660;-5.677447;-0.552108;8.642411;-0.469594;0.110753;0.031374
168;1670;-5.705767;-0.735645;8.629940;-0.460321;0.058268;0.022512
169;1680;-5.627431;-0.773804;8.556617;-0.417260;0.031860;0.001876
170;1690;-5.639331;-0.699496;8.362387;-0.372977;0.028294;-0.007213
171;1700;-5.691544;-0.624043;8.181742;-0.339137;0.039265;-0.016334
172;1710;-5.652371;-0.410806;7.998725;-0.323990;0.067061;-0.019859
173;1720;-5.742131;-0.311793;7.855263;-0.332546;0.100717;-0.017241
174;1730;-5.802869;-0.164243;7.775888;-0.377040;0.139784;-0.008030
175;1740;-5.732616;-0.110460;7.672736;-0.426127;0.173337;0.024468
176;1750;-5.799950;-0.168338;7.533473;-0.479876;0.213118;0.046961
177;1760;-5.851045;-0.246166;7.494491;-0.522208;0.247903;0.046758
178;1770;-5.887634;-0.317284;7.509597;-0.573822;0.268098;0.051332
179;1780;-5.889611;-0.439968;7.530804;-0.628297;0.279175;0.039425
180;1790;-5.865397;-0.631360;7.573211;-0.676880;0.290299;0.031525
181;1800;-5.858764;-0.889200;7.689306;-0.688937;0.308788;0.026186
182;1810;-5.923911;-1.112944;7.722550;-0.651800;0.303830;0.021312
183;1820;-5.990462;-1.244365;7.774277;-0.589205;0.271806;0.021591
184;1830;-5.929153;-1.196125;7.862919;-0.528434;0.256618;0.005053
185;1840;-5.987570;-1.297487;7.787508;-0.472261;0.242405;-0.000953
186;1850;-5.942150;-1.273424;7.753520;-0.407487;0.238988;-0.017508
187;1860;-5.894941;-1.186658;7.588389;-0.356528;0.260271;-0.023137
188;1870;-5.915493;-1.182477;7.523641;-0.318910;0.275716;-0.021439
189;1880;-5.974163;-1.150928;7.382616;-0.285081;0.288402;-0.021178
190;1890;-5.856865;-1.094798;7.254743;-0.282621;0.334458;-0.019706
191;1900;-5.946894;-1.059481;7.177258;-0.301707;0.412292;-0.038432
192;1910;-6.077670;-1.065720;7.107978;-0.336738;0.469941;-0.074137
193;1920;-6.074533;-1.004723;7.086519;-0.400443;0.524061;-0.104124
194;1930;-6.135073;-1.043881;7.074373;-0.473999;0.579321;-0.132484
195;1940;-6.231631;-1.162278;7.071490;-0.528555;0.630127;-0.159847
196;1950;-6.230345;-1.295019;6.990649;-0.567523;0.673835;-0.181619
197;1960;-6.378241;-1.425003;7.028803;-0.578148;0.711976;-0.209699
198;1970;-6.530877;-1.437943;7.044479;-0.589783;0.705732;-0.230721
199;1980;-6.745340;-1.372645;7.078448;-0.594910;0.630329;-0.200282
200;1990;-6.719632;-1.413731;7.140716;-0.589422;0.509752;-0.144835
201;2000;-6.763751;-1.849808;7.004657;-0.513125;0.404820;-0.111795
202;2010;-6.601185;-1.812977;6.942147;-0.415133;0.362057;-0.097386
203;2020;-6.607944;-1.718644;7.013307;-0.347554;0.369452;-0.084170
204;2030;-6.698581;-1.631635;7.100666;-0.325431;0.369219;-0.070083
205;2040;-6.809045;-1.775352;7.070220;-0.328227;0.355295;-0.062015
206;2050;-6.750871;-1.950605;6.981948;-0.323886;0.349285;-0.100340
207;2060;-6.716945;-1.919384;6.991387;-0.304986;0.348916;-0.117038
208;2070;-6.848953;-1.981608;6.871394;-0.273995;0.310152;-0.127080
209;2080;-6.606506;-2.007107;6.764539;-0.234789;0.294245;-0.126385
210;2090;-6.592231;-1.940003;6.661118;-0.206946;0.332713;-0.150367
211;2100;-6.679613;-1.817025;6.610299;-0.217482;0.350826;-0.155694
212;2110;-6.647936;-1.974460;6.617459;-0.233556;0.384338;-0.166726
213;2120;-6.735066;-1.993805;6.545229;-0.227503;0.404529;-0.195699
214;2130;-6.752661;-1.969194;6.602328;-0.236574;0.397845;-0.199195
215;2140;-6.796269;-1.967107;6.552920;-0.246047;0.394195;-0.206791
216;2150;-6.862728;-1.952602;6.556895;-0.256201;0.379103;-0.218130
217;2160;-6.898083;-1.969603;6.537817;-0.265524;0.368234;-0.218396
218;2170;-6.851961;-1.991767;6.477720;-0.279234;0.395630;-0.216714
219;2180;-6.922324;-2.015167;6.418548;-0.288947;0.445078;-0.226432
220;2190;-6.982404;-2.072278;6.415380;-0.276892;0.467489;-0.218429
221;2200;-7.039931;-2.092301;6.369635;-0.269071;0.486325;-0.210642
222;2210;-7.049349;-2.031681;6.236288;-0.254661;0.524229;-0.206011
223;2220;-7.160631;-2.041210;6.262510;-0.241808;0.519445;-0.192204
224;2230;-7.198998;-2.087699;6.231912;-0.207720;0.507971;-0.171439
225;2240;-7.224157;-2.004541;6.110902;-0.190250;0.518186;-0.153377
226;2250;-7.205365;-2.069206;6.035130;-0.162073;0.532715;-0.132455
227;2260;-7.266731;-2.056954;6.016870;-0.117713;0.520347;-0.098157
228;2270;-7.333664;-2.005714;6.001181;-0.072222;0.495167;-0.066953
229;2280;-7.220855;-2.075737;5.983581;-0.039719;0.498181;-0.027554
230;2290;-7.064240;-2.144616;5.773125;0.033175;0.566519;0.027583
231;2300;-7.182821;-2.220283;5.776666;0.142666;0.623159;0.105230
232;2310;-7.394797;-2.193850;5.743735;0.275315;0.652576;0.157442
233;2320;-7.474272;-1.977639;5.894089;0.377548;0.654236;0.202926
234;2330;-7.688168;-1.633394;6.070418;0.418970;0.594486;0.291107
235;2340;-7.665085;-1.711591;5.972757;0.413346;0.528627;0.389238
236;2350;-7.506096;-1.850123;5.726842;0.453072;0.531263;0.446801
237;2360;-7.558966;-1.788063;5.734939;0.520568;0.556078;0.506897
238;2370;-7.376139;-1.506594;5.694214;0.552157;0.578763;0.608687
239;2380;-7.357669;-1.066541;5.629292;0.525992;0.600993;0.803905
240;2390;-7.760487;-1.143482;5.567701;0.508958;0.563273;0.967261
241;2400;-7.896773;-1.742215;5.538429;0.612800;0.469346;1.044638
242;2410;-7.970256;-1.324294;5.925799;0.821039;0.315634;1.135812
243;2420;-8.165502;-1.057760;6.143180;0.924295;0.082909;1.333046
244;2430;-7.919420;-1.449026;5.916757;1.009219;-0.022347;1.455883
245;2440;-7.329746;-1.324512;5.476715;1.128092;0.093395;1.560024
246;2450;-7.426364;-0.959486;5.201158;1.243015;0.299936;1.673868
247;2460;-7.701829;-1.113938;5.123433;1.380578;0.511730;1.609272
248;2470;-7.864088;-0.837539;5.222178;1.517103;0.670269;1.519785
249;2480;-8.304302;-0.144192;5.681700;1.603637;0.692390;1.403215
250;2490;-8.687793;0.566656;6.123363;1.500431;0.545512;1.319320
251;2500;-8.823658;0.795969;6.269712;1.287722;0.327905;1.235978
252;2510;-8.734180;0.881830;6.338434;1.053716;0.123105;1.121316
253;2520;-8.532439;0.864738;6.218960;0.821024;-0.033407;0.981667
254;2530;-8.152590;0.709514;5.770647;0.615426;-0.075368;0.881166
255;2540;-7.894618;0.512618;5.406448;0.532283;-0.015918;0.767934
256;2550;-7.809452;0.538147;5.386387;0.527582;0.030335;0.720847
257;2560;-7.629020;0.657350;5.162322;0.571146;0.075059;0.803435
258;2570;-7.870457;0.541284;5.141000;0.710205;0.103140;0.833868
259;2580;-7.978992;0.788766;5.329535;0.861078;0.102439;0.789641
260;2590;-8.131104;1.354533;5.679165;0.913464;0.044806;0.797320
261;2600;-8.493735;1.802705;5.993694;0.853446;-0.098162;0.792009
262;2610;-8.650347;1.854892;6.163675;0.726835;-0.300053;0.784397
263;2620;-8.421238;1.736021;6.025132;0.606583;-0.432757;0.742010
264;2630;-8.161881;1.713935;5.856953;0.535549;-0.488764;0.684100
265;2640;-7.921410;1.304728;5.554152;0.549958;-0.493799;0.664643
266;2650;-7.635977;1.114694;5.418328;0.730389;-0.454725;0.719943
267;2660;-7.771097;1.249084;5.530303;0.960447;-0.436493;0.754363
268;2670;-7.801241;1.511724;5.634957;1.144423;-0.452688;0.783461
269;2680;-7.819360;1.831684;5.815635;1.273171;-0.490090;0.831696
270;2690;-7.712491;2.001515;5.838585;1.326056;-0.505639;0.837678
271;2700;-7.544797;2.106735;5.757784;1.337504;-0.438706;0.775135
272;2710;-7.502881;2.420948;5.808229;1.294119;-0.305064;0.637944
273;2720;-7.571541;2.859268;5.863939;1.146021;-0.170618;0.487726
274;2730;-7.736873;3.329480;6.035800;0.955481;-0.120824;0.402434
275;2740;-8.015884;3.190379;6.063166;0.802784;-0.229994;0.425999
276;2750;-7.758132;2.466374;5.782666;0.812215;-0.369682;0.412881
277;2760;-7.450234;2.343939;5.615563;0.989082;-0.424585;0.441556
278;2770;-7.484311;2.719549;5.706673;1.151383;-0.466423;0.469100
279;2780;-7.494710;2.987639;5.708336;1.226566;-0.487717;0.474081
280;2790;-7.410589;3.344172;5.766986;1.218194;-0.499395;0.464919
281;2800;-7.313403;3.680619;5.748835;1.117817;-0.482153;0.451200
282;2810;-7.349953;3.747235;5.620245;0.967748;-0.445192;0.389592
283;2820;-7.350792;3.784484;5.563875;0.818582;-0.425640;0.314513
284;2830;-7.324394;3.875433;5.498571;0.708094;-0.435090;0.288027
285;2840;-7.407477;3.862419;5.434480;0.616120;-0.489008;0.282580
286;2850;-7.254145;3.860120;5.325263;0.558640;-0.536805;0.254795
287;2860;-7.290950;4.007716;5.350086;0.487167;-0.577452;0.260787
288;2870;-7.265916;4.093803;5.411966;0.396229;-0.614934;0.234953
289;2880;-7.188620;4.038907;5.404884;0.297815;-0.634398;0.216904
290;2890;-7.004466;3.836991;5.375859;0.237550;-0.604529;0.185302
291;2900;-6.940068;3.842587;5.458185;0.199002;-0.550721;0.150913
292;2910;-7.008149;3.897705;5.580273;0.149482;-0.520130;0.127887
293;2920;-7.050756;3.828991;5.682927;0.093386;-0.518098;0.107444
294;2930;-7.021083;3.704780;5.765939;0.069305;-0.529679;0.025556
295;2940;-7.195836;3.852791;6.078013;0.019338;-0.582196;-0.029034
296;2950;-7.485044;4.121924;6.482842;-0.121026;-0.720122;-0.165395
297;2960;-7.730987;5.199284;7.175644;-0.457697;-0.935305;-0.265831
298;2970;-8.388425;6.245962;7.436600;-1.164399;-1.319994;-0.357833
299;2980;-7.526303;4.811416;6.506982;-1.849151;-1.619537;-0.585666
300;2990;-6.000193;3.171228;5.545827;-2.045604;-1.545406;-0.748223
301;3000;-5.887955;2.090164;5.239786;-1.856920;-1.311334;-0.872507
302;3010;-5.438361;1.214794;5.139054;-1.408181;-1.021109;-0.984540
303;3020;-5.324068;1.202675;5.459733;-0.793837;-0.695000;-0.898414
304;3030;-6.261100;1.726645;6.302994;-0.258241;-0.516193;-0.794714
305;3040;-6.983186;2.293536;7.187089;0.045264;-0.573288;-0.813140
306;3050;-7.143403;2.721449;7.688107;0.131911;-0.750347;-0.871863
307;3060;-6.856329;3.045407;7.775862;0.080640;-0.944882;-0.908317
308;3070;-6.615529;3.317592;7.720027;-0.062565;-1.112211;-0.836144
309;3080;-6.323918;3.204536;7.358290;-0.238687;-1.225410;-0.793088
310;3090;-5.995634;2.878985;7.163452;-0.364443;-1.249260;-0.741552
311;3100;-5.913436;2.618284;6.885462;-0.432747;-1.234130;-0.739192
312;3110;-5.541453;2.113886;6.732088;-0.414176;-1.156154;-0.715139
313;3120;-5.426809;1.568119;6.729232;-0.251522;-1.048713;-0.602640
314;3130;-5.697593;1.155693;6.815946;-0.010194;-0.958854;-0.614928
315;3140;-5.861793;1.035709;7.101919;0.239183;-0.912603;-0.743320
316;3150;-5.263851;1.793994;7.398729;0.380600;-0.867718;-0.792193
317;3160;-5.258255;2.475201;7.738450;0.355852;-0.820806;-0.565547
318;3170;-6.072513;2.839147;8.070369;0.174004;-0.874106;-0.497310
319;3180;-5.808541;2.996579;7.839358;-0.113233;-0.982683;-0.533777
320;3190;-5.382821;2.679770;7.627431;-0.345118;-1.046615;-0.413955
321;3200;-5.212994;2.111874;7.293200;-0.457591;-1.019807;-0.364831
322;3210;-5.101204;1.565925;7.173338;-0.429535;-0.932046;-0.373909
323;3220;-5.066606;1.282824;7.206453;-0.300291;-0.817321;-0.386705
324;3230;-4.901037;1.093236;7.297407;-0.117572;-0.690437;-0.397610
325;3240;-4.810247;0.904497;7.401682;0.127833;-0.544654;-0.377885
326;3250;-5.191319;1.372791;7.953259;0.318104;-0.434667;-0.365405
327;3260;-5.460716;1.666393;8.361688;0.343487;-0.413567;-0.473156
328;3270;-5.256148;1.997907;8.470263;0.286994;-0.463087;-0.498466
329;3280;-5.332343;2.454653;8.579741;0.138252;-0.559534;-0.435049
330;3290;-5.042015;2.314264;8.344219;-0.055653;-0.633713;-0.414401
331;3300;-4.740725;1.820527;8.020127;-0.133681;-0.640119;-0.394284
332;3310;-4.981998;1.148551;8.083776;-0.064582;-0.638634;-0.416428
333;3320;-5.199329;0.881739;8.367132;0.052456;-0.701228;-0.640922
334;3330;-4.581518;1.018721;8.370773;0.143989;-0.774546;-0.739040
335;3340;-4.233658;1.001073;8.058749;0.271398;-0.774828;-0.665046
336;3350;-4.270205;1.331761;7.922435;0.382776;-0.706732;-0.621858
337;3360;-4.559650;1.795601;7.926172;0.386201;-0.667143;-0.648979
338;3370;-4.226713;1.941587;7.619649;0.330962;-0.609357;-0.656359
339;3380;-4.331730;2.004323;7.554393;0.305234;-0.537859;-0.635020
340;3390;-4.797160;2.313342;7.758365;0.211133;-0.534596;-0.672827
341;3400;-4.581568;2.259519;7.779592;0.066135;-0.550364;-0.743392
342;3410;-4.705756;1.932791;7.930711;0.001339;-0.561752;-0.792823
343;3420;-4.192844;1.872002;7.876506;-0.021709;-0.554810;-0.839889
344;3430;-3.725386;1.672032;7.814009;0.048949;-0.477545;-0.727189
345;3440;-4.064346;1.532669;7.922010;0.173354;-0.369589;-0.664040
346;3450;-4.023016;1.846989;8.099008;0.247439;-0.254883;-0.662603
347;3460;-4.833674;2.746230;8.642064;0.135233;-0.234300;-0.631350
348;3470;-4.929669;3.078008;8.656776;-0.196475;-0.325498;-0.622974
349;3480;-4.496833;2.609312;8.487070;-0.469301;-0.378765;-0.535815
350;3490;-4.951193;1.982181;8.521246;-0.620962;-0.396144;-0.570738
351;3500;-4.059190;1.745401;8.433645;-0.688339;-0.355408;-0.660277
352;3510;-3.765129;1.882605;8.640821;-0.683727;-0.263382;-0.506048
353;3520;-4.428325;1.644651;8.848398;-0.717416;-0.221795;-0.405038
354;3530;-4.220312;1.257493;9.007105;-0.728762;-0.189066;-0.398123
355;3540;-4.309890;1.285356;9.184824;-0.739153;-0.156579;-0.355288
356;3550;-4.250902;1.189377;9.230265;-0.822207;-0.114487;-0.382370
357;3560;-3.881534;1.082524;9.167610;-0.894483;-0.008424;-0.390555
358;3570;-4.137459;0.889824;9.175691;-0.963939;0.089511;-0.353681
359;3580;-4.362754;0.526721;9.226196;-1.008089;0.165171;-0.395269
360;3590;-4.228676;0.299138;9.226583;-1.005956;0.201006;-0.440441
361;3600;-4.159200;0.113150;9.241377;-1.005192;0.246140;-0.455220
362;3610;-4.215324;-0.252827;9.207447;-0.996151;0.309879;-0.518526
363;3620;-4.177892;-0.194678;9.107269;-0.982011;0.362790;-0.594411
364;3630;-4.033775;-0.098842;9.107197;-1.023288;0.407118;-0.600142
365;3640;-4.462362;-0.151318;9.116782;-1.064799;0.427321;-0.588262
366;3650;-4.585185;0.047578;9.199783;-1.150897;0.388623;-0.622145
367;3660;-4.444650;0.001467;9.058324;-1.241036;0.313139;-0.536722
368;3670;-4.846266;-0.545405;9.023633;-1.248713;0.227503;-0.446511
369;3680;-4.647421;-0.764732;8.935249;-1.224201;0.192286;-0.490288
370;3690;-4.246869;-0.919375;8.760915;-1.221569;0.277510;-0.569846
371;3700;-4.158769;-1.002963;8.599867;-1.272930;0.440234;-0.686439
372;3710;-4.014690;-0.960497;8.454695;-1.382735;0.637823;-0.752747
373;3720;-4.285941;-0.910093;8.364167;-1.516399;0.814138;-0.732615
374;3730;-4.575563;-1.388505;8.193345;-1.595840;0.914464;-0.721915
375;3740;-4.806730;-1.899346;8.282113;-1.579433;0.960148;-0.699385
376;3750;-5.075413;-2.073220;8.505420;-1.501045;0.908998;-0.675273
377;3760;-5.281106;-2.179556;8.734518;-1.372978;0.733283;-0.550119
378;3770;-5.469522;-2.695916;8.754723;-1.196570;0.549500;-0.452648
379;3780;-5.167987;-2.751191;8.745064;-1.011832;0.450435;-0.437509
380;3790;-5.062439;-2.501815;8.737669;-0.937012;0.435635;-0.432885
381;3800;-4.996906;-2.434255;8.530623;-0.979614;0.480340;-0.454666
382;3810;-4.885587;-2.241846;8.252744;-1.111132;0.553168;-0.476126
383;3820;-5.002894;-2.574071;7.902156;-1.208699;0.607392;-0.460389
384;3830;-4.889464;-2.852600;7.522484;-1.225586;0.711864;-0.463295
385;3840;-4.792259;-2.875867;7.466518;-1.222488;0.881436;-0.463173
386;3850;-5.040656;-3.129119;7.491031;-1.221681;0.976837;-0.452262
387;3860;-5.442057;-3.469478;7.566537;-1.154761;0.939540;-0.419737
388;3870;-5.486534;-3.519209;7.592280;-1.016018;0.819798;-0.374208
389;3880;-5.604501;-3.422344;7.629687;-0.887548;0.684954;-0.290807
390;3890;-5.615509;-3.556510;7.454940;-0.823599;0.606974;-0.267950
391;3900;-5.212913;-3.310490;7.213343;-0.871541;0.696629;-0.279449
392;3910;-5.249768;-3.371452;6.829738;-0.980295;0.858328;-0.259421
393;3920;-5.584670;-3.724078;6.548331;-0.970441;0.975413;-0.218446
394;3930;-5.880308;-3.874758;6.504783;-0.848421;1.013102;-0.198079
395;3940;-6.026332;-3.620968;6.604564;-0.762144;1.047757;-0.202557
396;3950;-6.079495;-3.523033;6.807219;-0.755919;1.008962;-0.157026
397;3960;-6.517460;-3.849728;6.798794;-0.719660;0.887909;-0.131461
398;3970;-6.545325;-3.928657;6.779780;-0.649772;0.742693;-0.134387
399;3980;-6.489815;-3.496478;6.868068;-0.705802;0.631039;-0.132145
400;3990;-6.454501;-3.273001;6.774016;-0.947825;0.593735;-0.147453
401;4000;-6.470233;-3.106335;6.502699;-1.319365;0.619320;-0.216657
402;4010;-6.038974;-3.282907;5.888222;-1.685465;0.716498;-0.248271
403;4020;-5.786121;-3.957309;5.309302;-1.873558;0.884383;-0.209601
404;4030;-5.684936;-4.945183;4.973806;-1.748710;1.044811;-0.193523
405;4040;-5.596718;-5.137686;5.057971;-1.394592;1.142931;-0.124602
406;4050;-6.208424;-5.112555;5.310409;-1.035637;1.158059;-0.034083
407;4060;-6.146021;-4.945916;5.648431;-0.772718;1.118050;0.033909
408;4070;-6.646228;-4.902175;5.775834;-0.590337;1.016827;0.107254
409;4080;-6.882373;-4.653008;5.919255;-0.526424;0.878398;0.112457
410;4090;-7.103351;-4.360756;5.932648;-0.619196;0.727512;0.088371
411;4100;-6.854597;-3.945551;5.657530;-0.823781;0.624130;0.100903
412;4110;-6.888760;-4.693951;5.046020;-0.995729;0.598022;0.107953
413;4120;-6.486949;-5.179707;4.615681;-0.943141;0.685624;0.021762
414;4130;-6.329954;-4.651974;4.638963;-0.802798;0.752832;0.075737
415;4140;-6.705696;-4.834319;4.584184;-0.678950;0.784692;0.186451
416;4150;-6.641093;-4.985798;4.618882;-0.438903;0.810143;0.273719
417;4160;-6.855811;-4.642481;4.784426;-0.200051;0.799123;0.421832
418;4170;-7.072894;-4.214521;4.914497;-0.054204;0.739568;0.634726
419;4180;-7.943149;-5.086081;4.715670;0.063985;0.666868;0.757903
420;4190;-7.576535;-4.985414;4.713612;0.209230;0.686754;0.625370
421;4200;-7.601013;-3.691803;5.014688;0.075630;0.683602;0.647593
422;4210;-7.911204;-3.765085;4.955037;-0.184555;0.549861;0.688021
423;4220;-7.903905;-4.664559;4.719097;-0.270283;0.408810;0.664197
424;4230;-7.479943;-4.389320;4.671617;-0.202737;0.319887;0.593379
425;4240;-7.308233;-3.876185;4.718330;-0.191595;0.215195;0.697353
426;4250;-7.072868;-3.907071;4.552301;-0.126764;0.098139;0.910055
427;4260;-7.663538;-4.749470;4.524063;0.041322;0.023827;1.153688
428;4270;-8.129918;-5.436775;4.778483;0.412403;-0.003439;0.980026
429;4280;-8.110232;-4.033135;5.533074;0.644269;-0.146093;0.916670
430;4290;-8.750360;-3.983519;5.497481;0.644170;-0.492634;0.909777
431;4300;-8.469515;-4.796714;4.798976;0.685451;-0.726577;0.725429
432;4310;-7.248933;-3.285785;4.712269;0.577773;-0.614662;0.561857
433;4320;-7.518477;-2.346902;4.403175;0.219392;-0.511853;0.682751
434;4330;-6.827880;-2.709930;3.891083;0.015522;-0.399799;0.867967
435;4340;-6.078991;-2.674921;3.379718;0.044024;-0.168137;1.242048
436;4350;-6.080592;-3.038623;3.194151;0.239845;0.117590;1.772466
437;4360;-6.803029;-4.287163;3.297285;0.680873;0.360282;2.136827
438;4370;-7.853032;-4.968636;4.188490;1.334820;0.511745;2.049869
439;4380;-9.054966;-4.156126;5.405708;1.838804;0.455212;1.672210
440;4390;-9.491157;-1.823906;6.699320;1.833214;0.100675;1.406858
441;4400;-10.259271;-1.153523;7.227757;1.334822;-0.481945;1.296365
442;4410;-9.751538;-1.483490;6.981317;0.765687;-1.005955;0.947850
443;4420;-8.757205;-1.319337;6.193189;0.273666;-1.311234;0.686680
444;4430;-7.888085;-1.416645;5.188352;-0.082001;-1.424616;0.594359
445;4440;-6.924540;-2.185993;4.122209;-0.153495;-1.305485;0.613416
446;4450;-6.275168;-2.776192;3.627805;0.101140;-0.952365;0.733751
447;4460;-6.910441;-3.829464;3.738660;0.544924;-0.522203;0.733328
448;4470;-7.163321;-2.677987;4.688327;1.018563;-0.133913;0.511855
449;4480;-8.164965;-1.444334;5.870284;1.045804;-0.058480;0.557566
450;4490;-9.181795;-1.020814;6.850495;0.852588;-0.253849;0.414723
451;4500;-9.578236;-0.375818;7.700965;0.497663;-0.692334;0.245763
452;4510;-9.835941;-0.289614;7.962756;0.062575;-1.308372;0.156139
453;4520;-9.754801;-0.372789;7.900874;-0.299275;-1.960089;0.042962
454;4530;-9.038573;-0.965908;7.236511;-0.509412;-2.488860;-0.005034
455;4540;-7.708072;-1.902314;6.080880;-0.425141;-2.709287;0.104203
456;4550;-5.752014;-2.829597;4.519643;-0.093686;-2.250696;0.232551
457;4560;-4.773187;-2.993152;3.873503;0.487737;-1.335268;0.362998
458;4570;-5.199454;-2.521451;4.242120;1.069001;-0.438929;0.556338
459;4580;-6.325638;-1.448963;5.254686;1.424211;0.120275;0.679907
460;4590;-7.557991;-0.487664;6.455629;1.443568;0.229572;0.732830
461;4600;-8.250170;0.192415;7.472945;1.180123;-0.020577;0.692601
462;4610;-8.389811;0.106445;7.793561;0.799229;-0.441976;0.611417
463;4620;-7.920976;-0.459164;7.671700;0.558686;-0.879447;0.542682
464;4630;-7.656829;-0.773143;7.621913;0.496609;-1.270060;0.544846
465;4640;-7.440992;-0.731975;7.354632;0.485592;-1.574081;0.541844
466;4650;-6.679460;-0.742518;6.878075;0.467770;-1.693485;0.574883
467;4660;-5.838717;-0.667947;6.350743;0.454502;-1.484134;0.599198
468;4670;-5.616944;-0.376630;6.059926;0.451253;-1.099660;0.608147
469;4680;-5.831505;-0.556008;6.112994;0.504602;-0.786833;0.663037
470;4690;-5.871452;-0.381811;6.404726;0.599767;-0.594418;0.721366
471;4700;-6.010142;0.196238;6.877997;0.662384;-0.553443;0.842555
472;4710;-6.082134;0.428805;7.236981;0.631490;-0.602116;1.053450
473;4720;-6.088073;0.358847;7.354773;0.595487;-0.674466;1.257557
474;4730;-6.303284;0.252033;7.598682;0.588004;-0.784944;1.415676
475;4740;-6.188325;-0.214951;7.517993;0.588925;-0.945186;1.460002
476;4750;-5.587882;-0.328743;7.239284;0.617589;-0.885807;1.383968
477;4760;-5.364710;0.060858;7.197927;0.602192;-0.668685;1.262493
478;4770;-5.201501;0.448351;7.117799;0.503094;-0.390785;1.215706
479;4780;-5.282619;0.630896;6.962796;0.399354;-0.132175;1.214740
480;4790;-5.669775;0.652773;6.975880;0.367145;0.044723;1.253618
481;4800;-6.009213;0.527459;7.061206;0.412790;0.124584;1.295960
482;4810;-6.248947;0.643251;7.287014;0.527192;0.127088;1.337005
483;4820;-6.593176;0.923717;7.592800;0.645388;0.036336;1.357919
484;4830;-6.636726;1.356971;7.910715;0.717493;-0.136571;1.410886
485;4840;-6.903874;1.782474;8.294638;0.720713;-0.382167;1.571404
486;4850;-7.012166;1.891119;8.532346;0.630544;-0.646970;1.633161
487;4860;-6.755081;1.662931;8.441128;0.524899;-0.884366;1.550319
488;4870;-6.252791;1.422016;8.226884;0.452501;-1.001755;1.387889
489;4880;-5.658934;1.518947;8.087537;0.389308;-1.028094;1.232404
490;4890;-5.352063;1.496431;7.929694;0.341713;-1.013825;1.142460
491;4900;-5.225961;1.793931;7.963321;0.338605;-0.990499;1.174477
492;4910;-5.349510;1.915939;8.086675;0.288980;-1.001803;1.179203
493;4920;-4.905779;1.883458;8.050219;0.251896;-0.957657;1.003771
494;4930;-4.817474;2.129096;8.189066;0.299079;-0.921309;0.969466
495;4940;-5.125367;2.051423;8.340846;0.358858;-0.970479;1.073328
496;4950;-4.859250;1.941411;8.493653;0.438266;-1.003125;0.991226
497;4960;-4.753115;2.182903;8.680021;0.513714;-1.031894;0.882416
498;4970;-4.787972;2.404402;8.831977;0.485958;-1.078481;0.845552
499;4980;-4.501376;2.835784;9.084195;0.440193;-1.134389;0.821607
500;4990;-5.131876;3.209285;9.287336;0.312595;-1.308322;1.005224
501;5000;-4.760049;2.900708;9.187068;0.115473;-1.500617;0.934137
502;5010;-3.682718;2.429206;8.848116;0.034796;-1.495866;0.704172
503;5020;-3.320634;2.187424;8.524897;0.064083;-1.361595;0.609144
504;5030;-2.909898;2.186437;8.337086;0.171176;-1.161192;0.519816
505;5040;-3.069325;2.275569;8.410725;0.332449;-0.979381;0.470257
506;5050;-3.389176;2.447589;8.529341;0.479820;-0.907116;0.432670
507;5060;-3.508469;2.517585;8.600904;0.615663;-0.933354;0.423396
508;5070;-3.386873;2.547173;8.668227;0.746170;-0.976351;0.384147
509;5080;-3.003732;2.579870;8.670449;0.858887;-0.954165;0.271314
510;5090;-2.685020;3.699036;8.961247;0.865553;-0.843188;0.230591
511;5100;-3.106743;4.738146;9.185417;0.542533;-0.805952;0.289465
512;5110;-2.835508;4.542808;8.870123;0.156330;-0.783154;0.216354
513;5120;-2.797089;4.193841;8.652694;-0.047459;-0.707526;0.271984
514;5130;-2.719231;3.734687;8.504669;-0.160153;-0.652330;0.288625
515;5140;-2.174411;3.311521;8.247106;-0.161656;-0.508443;0.188609
516;5150;-2.134387;3.209407;8.307638;-0.089725;-0.271795;0.109351
517;5160;-2.359884;3.301825;8.509906;-0.071048;-0.081917;0.030040
518;5170;-2.615569;3.496357;8.772842;-0.132840;0.032480;-0.079876
519;5180;-3.029079;3.772436;9.045579;-0.273702;0.021000;-0.063324
520;5190;-3.326498;3.608311;9.149529;-0.482586;-0.084616;-0.047917
521;5200;-2.627329;2.983283;8.925963;-0.613315;-0.148552;-0.156756
522;5210;-2.154996;2.376978;8.675581;-0.571884;-0.057353;-0.184727
523;5220;-2.558556;2.533685;8.844945;-0.413049;0.024273;-0.104943
524;5230;-3.272709;3.014846;9.167063;-0.390328;-0.055376;0.129956
525;5240;-3.056198;2.937725;9.185682;-0.479479;-0.160873;0.107284
526;5250;-2.555897;2.577074;9.081480;-0.528717;-0.170253;0.060899
527;5260;-2.536968;2.490994;8.999815;-0.550100;-0.117421;0.055182
528;5270;-2.656256;2.726859;9.009478;-0.607571;-0.075811;0.051246
529;5280;-2.978330;2.775849;9.040991;-0.744540;-0.084271;0.006436
530;5290;-2.842271;2.895693;9.119461;-0.941760;-0.112714;-0.114629
531;5300;-2.839714;2.716197;8.913736;-1.132646;-0.153435;-0.132410
532;5310;-2.621146;2.398735;8.726406;-1.242396;-0.146553;-0.108194
533;5320;-2.499620;2.363279;8.667238;-1.286739;-0.071316;-0.071314
534;5330;-2.826959;2.520571;8.772402;-1.321252;-0.040835;0.050908
535;5340;-3.035798;2.403646;8.840991;-1.380655;-0.061073;0.256546
536;5350;-2.652426;1.902461;8.862685;-1.385235;-0.026484;0.292152
537;5360;-2.709063;1.736861;8.980982;-1.315596;0.043056;0.339918
538;5370;-2.852676;1.912747;9.080644;-1.327813;0.094862;0.416825
539;5380;-2.624516;1.607026;9.017941;-1.363254;0.160043;0.351911
540;5390;-2.554627;1.289751;9.001705;-1.321920;0.270749;0.323077
541;5400;-2.788520;1.412970;9.130744;-1.283346;0.340938;0.358500
542;5410;-3.011063;1.261075;9.242538;-1.271331;0.349644;0.360453
543;5420;-2.900937;0.936071;9.191328;-1.231261;0.330065;0.335007
544;5430;-3.067138;1.249940;9.444657;-1.154088;0.311600;0.365602
545;5440;-3.533963;1.471885;9.566097;-1.170999;0.194748;0.539343
546;5450;-3.185744;1.117548;9.457819;-1.182626;0.090733;0.576951
547;5460;-2.855748;0.794242;9.260027;-1.107669;0.107689;0.511100
548;5470;-2.777569;0.826797;9.230506;-1.038457;0.180780;0.493179
549;5480;-2.815093;0.874805;9.221780;-1.007685;0.262245;0.445307
550;5490;-2.915106;0.777171;9.202891;-0.986805;0.322654;0.421042
551;5500;-3.120550;0.686454;9.332911;-0.957471;0.342157;0.444115
552;5510;-3.307047;0.921526;9.562763;-0.972901;0.300626;0.492798
553;5520;-3.457860;0.803302;9.530344;-1.050268;0.208933;0.512437
554;5530;-3.138689;0.493110;9.387780;-1.089980;0.157639;0.471226
555;5540;-3.180294;0.518566;9.329016;-1.105147;0.141926;0.469845
556;5550;-3.107734;0.383003;9.196703;-1.142349;0.147407;0.479239
557;5560;-2.862568;0.160256;9.014289;-1.133132;0.214204;0.479328
558;5570;-2.937330;-0.108685;8.919357;-1.079518;0.304515;0.486128
559;5580;-3.142628;-0.314447;8.829885;-1.004743;0.384877;0.486531
560;5590;-3.230863;-0.443649;8.911195;-0.934284;0.434650;0.447852
561;5600;-3.266820;0.006480;9.130304;-0.877602;0.472755;0.459362
562;5610;-3.817054;0.567234;9.243320;-0.988840;0.429343;0.592380
563;5620;-3.707574;0.232445;9.111430;-1.172506;0.350387;0.616130
564;5630;-3.456734;-0.493975;8.800645;-1.219451;0.363357;0.552435
565;5640;-3.549015;-0.827381;8.679980;-1.169061;0.395607;0.534583
566;5650;-3.448128;-0.923400;8.702209;-1.103782;0.446528;0.525610
567;5660;-3.440808;-1.006111;8.748077;-1.024334;0.523061;0.506936
568;5670;-3.453650;-1.182197;8.714662;-0.954904;0.612180;0.467986
569;5680;-3.498399;-1.401161;8.686511;-0.874047;0.711230;0.434437
570;5690;-3.674202;-1.524797;8.866740;-0.784929;0.795213;0.397586
571;5700;-3.923259;-1.160269;9.172820;-0.775358;0.818001;0.362868
572;5710;-4.353139;-0.796574;9.377655;-0.923432;0.728743;0.372077
573;5720;-4.206703;-1.227242;9.187974;-1.103520;0.599523;0.335766
574;5730;-3.892868;-1.910435;8.879726;-1.116519;0.549423;0.295846
575;5740;-3.677888;-2.362154;8.571976;-0.991748;0.590400;0.245034
576;5750;-3.482884;-2.406445;8.481882;-0.807160;0.712615;0.168293
577;5760;-3.735488;-2.150906;8.625247;-0.628756;0.844123;0.130693
578;5770;-4.270440;-1.697528;8.891444;-0.568395;0.878497;0.157496
579;5780;-4.370793;-1.862699;8.901109;-0.585981;0.841168;0.080044
580;5790;-4.114686;-2.173355;8.789430;-0.539913;0.850404;-0.007789
581;5800;-4.207266;-2.136391;8.741785;-0.466581;0.885353;-0.073007
582;5810;-4.209607;-2.236176;8.589290;-0.403337;0.931467;-0.166014
583;5820;-4.267936;-2.084221;8.645416;-0.336381;0.991551;-0.219913
584;5830;-4.729886;-1.773421;8.792737;-0.367778;0.967248;-0.211752
585;5840;-4.616553;-2.167490;8.584970;-0.431619;0.922699;-0.269010
586;5850;-4.350444;-2.587909;8.351504;-0.373397;0.974356;-0.345110
587;5860;-4.708184;-2.708355;8.258196;-0.249434;1.015620;-0.390383
588;5870;-4.831112;-2.755124;8.176149;-0.117490;1.011520;-0.453973
589;5880;-4.750144;-2.747666;8.034153;0.030881;1.037406;-0.552431
590;5890;-5.017760;-2.308063;8.115136;0.147505;1.046094;-0.581584
591;5900;-5.294033;-1.853311;8.212579;0.137402;0.986876;-0.571315
592;5910;-5.328852;-1.853624;8.064875;0.074929;0.912792;-0.582975
593;5920;-5.291339;-1.841927;7.981143;0.016420;0.861934;-0.591468
594;5930;-5.339550;-2.078600;7.747683;-0.014216;0.833963;-0.610574
595;5940;-5.208042;-2.109210;7.591360;-0.014470;0.844944;-0.645165
596;5950;-5.363300;-2.085808;7.510177;-0.000342;0.874941;-0.659313
597;5960;-5.558549;-2.308197;7.464755;0.027774;0.863847;-0.661663
598;5970;-5.524141;-2.360618;7.365239;0.118570;0.834439;-0.648616
599;5980;-5.640430;-2.551656;7.269086;0.258263;0.809564;-0.607621
600;5990;-5.429375;-2.695165;7.065015;0.435307;0.848610;-0.611054
601;6000;-5.474813;-2.181879;7.223897;0.574934;0.950296;-0.623146
602;6010;-6.067683;-1.484981;7.563907;0.496441;0.956448;-0.620482
603;6020;-6.240076;-1.268879;7.686539;0.264354;0.876335;-0.639543
604;6030;-6.181771;-1.561633;7.585724;0.030222;0.790964;-0.671195
605;6040;-6.098868;-1.779668;7.428110;-0.111121;0.723534;-0.710779
606;6050;-6.164763;-2.238189;7.285408;-0.159445;0.666638;-0.722387
607;6060;-6.095503;-2.697837;7.192821;-0.096573;0.618668;-0.809040
608;6070;-5.980565;-2.855380;7.126250;0.018696;0.610584;-0.892178
609;6080;-5.942981;-3.008530;7.001749;0.171918;0.610381;-0.888333
610;6090;-5.872471;-3.305719;6.849947;0.374302;0.628280;-0.873254
611;6100;-5.731679;-3.627390;6.638377;0.662998;0.692117;-0.918299
612;6110;-5.627912;-3.336583;6.761429;0.959962;0.806809;-0.951434
613;6120;-6.032881;-2.391223;7.142042;1.061772;0.883664;-0.930441
614;6130;-6.310678;-2.029774;7.356682;0.944515;0.850311;-0.917910
615;6140;-6.404083;-1.799131;7.555459;0.747916;0.778931;-0.917538
616;6150;-6.687029;-1.929800;7.677543;0.498665;0.642626;-0.953028
617;6160;-6.835884;-2.284519;7.790710;0.299298;0.445231;-1.066563
618;6170;-6.471254;-2.584093;7.633927;0.192144;0.256282;-1.132586
619;6180;-6.078502;-2.904017;7.308041;0.208096;0.151236;-1.051519
620;6190;-5.864623;-3.456030;7.000966;0.366836;0.159121;-0.963931
621;6200;-5.733408;-3.937710;6.709831;0.667668;0.275729;-1.022986
622;6210;-5.587742;-3.978215;6.591881;1.035544;0.446959;-1.061780
623;6220;-5.754054;-3.702564;6.642079;1.391322;0.597661;-1.051440
624;6230;-5.831128;-3.324213;6.726992;1.667348;0.726269;-1.029800
625;6240;-6.108466;-2.835436;6.918489;1.852283;0.810380;-0.973459
626;6250;-6.654425;-2.187190;7.366995;1.894241;0.795431;-0.949530
627;6260;-7.159084;-1.621026;7.794698;1.759166;0.650347;-0.969398
628;6270;-7.032469;-1.246733;7.842384;1.498629;0.453732;-1.003959
629;6280;-6.847516;-1.150191;7.789992;1.224250;0.273039;-0.935701
630;6290;-6.651001;-1.240119;7.595031;0.983696;0.138423;-0.824688
631;6300;-6.535394;-1.632788;7.293983;0.853495;0.050444;-0.745222
632;6310;-6.504049;-1.986270;6.998749;0.870319;0.001438;-0.679451
633;6320;-6.404351;-2.132194;6.852522;0.980123;0.011259;-0.649462
634;6330;-6.380644;-2.127493;6.786190;1.128237;0.059794;-0.625091
635;6340;-6.455595;-2.061604;6.784697;1.256631;0.133711;-0.645734
636;6350;-6.265088;-1.817290;6.859649;1.344651;0.227544;-0.652012
637;6360;-6.358742;-1.673560;6.991049;1.400106;0.292407;-0.570289
638;6370;-6.509643;-1.717343;7.018964;1.457088;0.317829;-0.529951
639;6380;-6.581581;-1.674984;7.129641;1.522113;0.322505;-0.546830
640;6390;-6.667742;-1.454388;7.297419;1.553645;0.299988;-0.559416
641;6400;-6.577020;-1.112758;7.423961;1.514391;0.258332;-0.521861
642;6410;-6.538993;-0.937409;7.456482;1.424230;0.211477;-0.432562
643;6420;-6.704672;-1.015420;7.372883;1.334957;0.148059;-0.355092
644;6430;-6.764750;-1.112752;7.336973;1.297931;0.079842;-0.342567
645;6440;-6.621692;-0.912960;7.299666;1.259983;0.038215;-0.316307
646;6450;-6.534607;-0.591978;7.171968;1.196008;0.053897;-0.263494
647;6460;-6.502100;-0.584626;7.040595;1.118062;0.095011;-0.206247
648;6470;-6.706268;-0.870531;7.077144;1.088560;0.106779;-0.149429
649;6480;-6.869915;-1.072657;7.158898;1.111238;0.108607;-0.200569
650;6490;-6.771621;-0.789974;7.308941;1.121729;0.085529;-0.250986
651;6500;-6.725701;-0.572775;7.429596;1.085675;0.017468;-0.199812
652;6510;-6.721771;-0.533590;7.483809;1.020612;-0.062330;-0.138779
653;6520;-6.596164;-0.600860;7.414292;0.962869;-0.103231;-0.121180
654;6530;-6.490575;-0.674182;7.259261;0.932470;-0.112990;-0.103599
655;6540;-6.168045;-0.761614;7.090796;0.928071;-0.052426;-0.079160
656;6550;-5.757961;-1.399186;6.667620;1.032572;0.087534;-0.047529
657;6560;-5.295820;-2.337225;6.088337;1.432077;0.333028;0.003560
658;6570;-5.334140;-2.245709;6.119029;2.029388;0.631226;0.065674
659;6580;-5.791412;-1.409085;6.522756;2.507631;0.867259;0.135941
660;6590;-6.520584;-0.233270;7.246843;2.714340;0.956565;0.164082
661;6600;-7.320049;1.234072;8.145331;2.504080;0.862630;0.171695
662;6610;-7.617601;1.912488;8.526826;1.965822;0.596505;0.136493
663;6620;-7.583313;1.630578;8.360300;1.410546;0.282388;0.100446
664;6630;-7.209839;1.060530;7.784260;1.031038;0.026532;0.036148
665;6640;-6.648581;0.600942;7.233999;0.907584;-0.119332;0.046854
666;6650;-6.603000;0.136019;6.772463;1.020956;-0.166980;0.115467
667;6660;-6.332847;-0.096426;6.395531;1.279704;-0.083283;0.096061
668;6670;-5.926210;0.030624;6.101776;1.581996;0.130962;0.095516
669;6680;-6.081901;0.252992;6.090112;1.885419;0.414593;0.116040
670;6690;-6.582516;0.815350;6.380117;2.069927;0.651188;0.078949
671;6700;-7.029701;1.555143;6.728204;2.108133;0.744921;0.042447
672;6710;-7.472973;2.116377;7.090087;1.993186;0.685958;0.043652
673;6720;-7.676474;2.658136;7.388968;1.763688;0.520370;0.057113
674;6730;-7.981323;2.757060;7.495880;1.490642;0.279068;0.097935
675;6740;-8.005706;2.636156;7.439729;1.234111;0.014246;0.110391
676;6750;-7.609547;2.481472;7.064665;1.028930;-0.185286;0.097328
677;6760;-7.235778;2.193025;6.668139;0.899012;-0.284684;0.110752
678;6770;-6.711459;1.773195;6.149613;0.860572;-0.260566;0.086298
679;6780;-6.370760;1.690347;5.766620;0.927881;-0.103637;0.065222
680;6790;-6.388403;1.894507;5.690484;0.983058;0.067715;0.073627
681;6800;-6.590643;2.133977;5.794015;0.991052;0.221799;0.058571
682;6810;-7.056128;2.250723;6.147831;0.939333;0.288582;0.013181
683;6820;-7.321267;2.433838;6.449382;0.843892;0.216282;-0.035234
684;6830;-7.363804;2.602681;6.625173;0.720555;0.070626;-0.017004
685;6840;-7.483838;2.459549;6.621592;0.617899;-0.093443;-0.007121
686;6850;-7.142854;2.263162;6.509181;0.554158;-0.227278;-0.002966
687;6860;-6.827412;2.076782;6.196538;0.571189;-0.285824;0.006489
688;6870;-6.383232;1.599534;5.521082;0.707591;-0.193679;-0.020265
689;6880;-5.772391;1.413947;4.967087;0.989341;0.094311;-0.032740
690;6890;-5.649985;1.792181;4.743714;1.301561;0.491254;-0.014273
691;6900;-5.989290;2.551608;4.941451;1.489714;0.878057;0.022247
692;6910;-6.484574;3.379773;5.268549;1.476205;1.147862;0.085691
693;6920;-6.974393;3.744768;5.612318;1.324200;1.250985;0.186774
694;6930;-7.247354;3.910999;5.820176;1.105489;1.258805;0.292831
695;6940;-7.623874;3.864363;5.917002;0.873502;1.179889;0.363116
696;6950;-7.543983;3.834830;5.897003;0.643403;1.055118;0.486067
697;6960;-7.276684;3.401853;5.570301;0.474483;1.003201;0.577906
698;6970;-7.140562;3.204755;5.305883;0.397204;1.065867;0.596339
699;6980;-7.011445;3.070365;5.114934;0.345180;1.194246;0.593494
700;6990;-7.013447;3.045292;5.048638;0.330767;1.354032;0.592534
701;7000;-7.273088;3.344076;5.077385;0.280477;1.504910;0.587930
702;7010;-7.748510;3.483976;5.185935;0.195450;1.572435;0.569285
703;7020;-8.166762;3.719735;5.556396;0.044842;1.548216;0.514787
704;7030;-8.490454;4.020247;5.956095;-0.187287;1.430748;0.458836
705;7040;-8.701511;4.213068;6.158019;-0.495276;1.239686;0.443743
706;7050;-8.769274;3.887008;6.147369;-0.809676;1.026619;0.407060
707;7060;-8.690896;3.312748;5.924352;-1.017310;0.816146;0.315237
708;7070;-8.446083;3.009861;5.753079;-1.131259;0.658465;0.221230
709;7080;-7.966009;2.571613;5.259618;-1.161515;0.611722;0.093104
710;7090;-7.409414;2.211052;4.744734;-1.040677;0.718696;0.016064
711;7100;-7.258506;2.443136;4.459515;-0.892711;0.940375;-0.001431
712;7110;-7.370361;2.704356;4.348892;-0.793404;1.180967;-0.012961
713;7120;-7.751055;3.196644;4.441491;-0.789085;1.372464;0.011659
714;7130;-8.376933;3.389552;4.651356;-0.854412;1.409379;0.008348
715;7140;-8.839508;3.365648;4.895386;-0.948928;1.278147;0.000505
716;7150;-9.138739;3.323689;5.054785;-1.051145;1.025907;-0.055881
717;7160;-9.089238;3.302339;5.082291;-1.169963;0.725860;-0.107806
718;7170;-8.725414;2.974087;4.848351;-1.278792;0.504561;-0.130739
719;7180;-8.051214;2.396894;4.239809;-1.270420;0.470777;-0.154714
720;7190;-7.796344;2.184424;4.002945;-1.139422;0.592684;-0.131567
721;7200;-8.044679;2.154104;4.056915;-0.981329;0.707220;-0.121600
722;7210;-8.141983;2.200423;4.141487;-0.862276;0.804476;-0.110866
723;7220;-8.336866;2.395559;4.231650;-0.788773;0.887768;-0.135944
724;7230;-8.708217;2.584319;4.437073;-0.777646;0.878675;-0.191421
725;7240;-8.902195;2.716917;4.549003;-0.818995;0.763387;-0.239986
726;7250;-8.971654;2.819292;4.605008;-0.893952;0.601414;-0.289775
727;7260;-8.974228;2.844350;4.516886;-1.003647;0.424374;-0.333342
728;7270;-8.961309;2.812289;4.468271;-1.130600;0.262014;-0.359308
729;7280;-8.669721;2.341818;4.163569;-1.204082;0.147351;-0.366711
730;7290;-8.137681;1.642679;3.730296;-1.121343;0.160777;-0.323466
731;7300;-7.972620;1.506501;3.562220;-0.915981;0.277540;-0.258860
732;7310;-8.163889;1.554601;3.610647;-0.708490;0.384684;-0.214115
733;7320;-8.358814;1.765507;3.793762;-0.551595;0.445525;-0.170384
734;7330;-8.657431;1.974269;3.974314;-0.465670;0.443583;-0.167155
735;7340;-8.744603;2.078569;4.046379;-0.464597;0.405620;-0.176594
736;7350;-8.786436;2.124844;4.180934;-0.485814;0.349484;-0.207896
737;7360;-8.949692;2.142207;4.283936;-0.533373;0.237842;-0.236386
738;7370;-8.944970;2.017694;4.244082;-0.586661;0.097553;-0.263923
739;7380;-8.578943;1.729024;3.931525;-0.623836;0.030918;-0.280642
740;7390;-8.291987;1.419569;3.583648;-0.581698;0.072016;-0.300267
741;7400;-8.218954;1.334432;3.435244;-0.506655;0.145095;-0.320888
742;7410;-8.352801;1.356122;3.410322;-0.438239;0.205915;-0.314714
743;7420;-8.457932;1.430763;3.461491;-0.419826;0.234199;-0.322845
744;7430;-8.681660;1.276704;3.487262;-0.433577;0.226602;-0.345683
745;7440;-8.846839;1.186897;3.601012;-0.468650;0.195850;-0.410543
746;7450;-8.992607;1.129760;3.779053;-0.528318;0.135637;-0.498279
747;7460;-9.237651;0.987233;3.953857;-0.613636;0.076635;-0.631753
748;7470;-9.595613;0.890908;4.458735;-0.702723;-0.037200;-0.853991
749;7480;-9.624758;1.255133;4.803166;-0.860943;-0.260256;-1.066279
750;7490;-9.110894;1.385849;4.804340;-1.082542;-0.497906;-1.108834
751;7500;-8.875787;0.916508;4.614346;-1.198691;-0.693850;-1.040954
752;7510;-8.882773;0.201228;4.449224;-1.144224;-0.833586;-1.029193
753;7520;-8.928973;-0.246475;4.388356;-0.998199;-0.886200;-1.104484
754;7530;-8.996816;-0.205476;4.484986;-0.893774;-0.874619;-1.339929
755;7540;-8.330735;0.603188;4.731321;-0.906342;-0.865628;-1.436144
756;7550;-8.178557;1.115498;4.895966;-1.045347;-0.918492;-1.171541
757;7560;-8.511071;-0.066104;4.550335;-1.078932;-0.977750;-1.018433
758;7570;-8.457212;-0.527058;4.679061;-0.890729;-0.967537;-1.035816
759;7580;-8.371610;-0.027723;4.966017;-0.748797;-0.965403;-1.011066
760;7590;-8.513553;-0.038460;5.149365;-0.700905;-0.975377;-0.911445
761;7600;-8.991902;-0.244927;5.392858;-0.669377;-0.996912;-0.982878
762;7610;-8.801104;0.240749;5.583816;-0.748283;-1.059895;-1.066970
763;7620;-8.863829;0.208586;5.600549;-0.912596;-1.135569;-1.072869
764;7630;-8.666125;-0.008246;5.526625;-1.037531;-1.199974;-1.139170
765;7640;-8.566621;-0.431544;5.551575;-1.102511;-1.262805;-1.123336
766;7650;-9.127032;-1.048754;5.671436;-1.041039;-1.376663;-1.270897
767;7660;-8.684900;-0.440238;5.945612;-1.033373;-1.532951;-1.429530
768;7670;-8.381680;-0.080760;6.015369;-1.173399;-1.729287;-1.303756
769;7680;-8.300489;-0.407790;5.893689;-1.370768;-1.854922;-1.203384
770;7690;-7.711657;-0.839519;5.419159;-1.498210;-1.857309;-1.145395
771;7700;-7.224244;-1.300937;4.989779;-1.494603;-1.714567;-1.016938
772;7710;-6.876805;-1.855756;4.712036;-1.385670;-1.461053;-0.852356
773;7720;-7.225746;-2.176678;5.064912;-1.215311;-1.147867;-0.812403
774;7730;-7.136694;-1.617680;5.398054;-1.195276;-0.888531;-0.816829
775;7740;-7.039282;-1.807786;5.548816;-1.291918;-0.707582;-0.698473
776;7750;-7.381056;-2.176608;5.883173;-1.308994;-0.618748;-0.617674
777;7760;-8.016397;-1.786648;6.486158;-1.444816;-0.701294;-0.611776
778;7770;-7.743862;-2.003101;6.500657;-1.695069;-0.905679;-0.619677
779;7780;-7.239316;-2.760556;6.188009;-1.809570;-1.024398;-0.579899
780;7790;-6.786486;-3.480872;5.789930;-1.751049;-1.017149;-0.563703
781;7800;-6.164341;-3.833246;5.523176;-1.580457;-0.889101;-0.520787
782;7810;-5.984235;-3.888650;5.532736;-1.374478;-0.698527;-0.418658
783;7820;-6.146246;-3.841048;5.664731;-1.236207;-0.528958;-0.313356
784;7830;-6.118626;-3.930369;5.687749;-1.134760;-0.388351;-0.223907
785;7840;-6.309087;-4.107155;5.836127;-1.037919;-0.261398;-0.154317
786;7850;-6.656319;-4.158368;6.084665;-0.968118;-0.170726;-0.164992
787;7860;-6.786055;-4.094133;6.384225;-0.961895;-0.167155;-0.219713
788;7870;-6.727218;-4.154583;6.485257;-0.972682;-0.232148;-0.216611
789;7880;-6.841294;-4.311689;6.566258;-0.973233;-0.347469;-0.227469
790;7890;-6.738361;-4.304077;6.612626;-0.969851;-0.490327;-0.243167
791;7900;-6.493116;-4.299406;6.487855;-0.989388;-0.629352;-0.238672
792;7910;-6.078903;-4.666965;6.211129;-0.920776;-0.697587;-0.178528
793;7920;-5.865017;-5.101032;5.920473;-0.744299;-0.692675;-0.108395
794;7930;-5.667462;-5.233945;5.798530;-0.497602;-0.594581;-0.091773
795;7940;-5.659537;-4.889430;5.849127;-0.315066;-0.432912;-0.063923
796;7950;-5.866121;-4.783275;5.953608;-0.203175;-0.297527;-0.050197
797;7960;-6.121150;-4.512032;6.312657;-0.111834;-0.246000;-0.033479
798;7970;-6.721951;-4.052884;6.847651;-0.054353;-0.387966;0.044430
799;7980;-7.285045;-4.107502;7.248345;-0.049286;-0.693065;0.074788
800;7990;-6.950917;-4.068189;7.312910;-0.018192;-1.011979;0.055942
801;8000;-6.790406;-4.182736;7.123589;0.052195;-1.271715;0.117795
802;8010;-6.453047;-4.568179;6.886771;0.245551;-1.446625;0.142470
803;8020;-6.070222;-4.581611;6.637216;0.546195;-1.511371;0.204781
804;8030;-5.741908;-4.215529;6.457070;0.815463;-1.419162;0.282266
805;8040;-5.599031;-3.928610;6.463606;1.010617;-1.225775;0.349646
806;8050;-5.594490;-3.181969;6.603510;1.122473;-1.043468;0.410532
807;8060;-6.230141;-3.200116;6.836697;1.191655;-1.017678;0.565432
808;8070;-6.163991;-3.376946;7.014511;1.351193;-1.058489;0.602869
809;8080;-6.458096;-2.552716;7.550638;1.488191;-1.174441;0.641732
810;8090;-6.697682;-2.395632;7.676995;1.477065;-1.393414;0.672224
811;8100;-6.035029;-2.054258;7.681684;1.423763;-1.503398;0.695859
812;8110;-5.779495;-1.595409;7.610026;1.259227;-1.492532;0.674402
813;8120;-5.523826;-1.755324;7.433926;1.071458;-1.424096;0.640368
814;8130;-4.898714;-1.931488;7.080424;0.987147;-1.251111;0.631137
815;8140;-4.783869;-2.400567;6.957120;1.063979;-1.057243;0.673009
816;8150;-4.817318;-2.632548;7.104276;1.265697;-0.858667;0.651673
817;8160;-4.836655;-2.210207;7.512410;1.439361;-0.701583;0.596553
818;8170;-5.014734;-1.614381;7.983682;1.500528;-0.626941;0.551321
819;8180;-5.468967;-1.086737;8.600993;1.440238;-0.727883;0.603895
820;8190;-5.777128;-1.068919;8.884623;1.277809;-0.969298;0.660459
821;8200;-5.051432;-0.912421;8.842981;1.078724;-1.126403;0.604459
822;8210;-4.428075;-1.164443;8.539822;0.932256;-1.130546;0.570400
823;8220;-4.233804;-1.544303;8.345590;0.918377;-1.085160;0.611354
824;8230;-4.189259;-1.844134;8.326682;1.023008;-1.016032;0.624550
825;8240;-3.888726;-1.727456;8.427478;1.140940;-0.949209;0.594637
826;8250;-3.868065;-1.418870;8.568316;1.211242;-0.857609;0.611814
827;8260;-3.882821;-1.179588;8.680318;1.215666;-0.782893;0.577789
828;8270;-3.790861;-1.341797;8.747376;1.247444;-0.719070;0.550578
829;8280;-3.789087;-1.039539;8.845099;1.316525;-0.678822;0.524528
830;8290;-3.949179;-0.831373;9.031203;1.379350;-0.698773;0.602822
831;8300;-3.748454;-0.505121;9.113452;1.379886;-0.698501;0.621098
832;8310;-3.313052;-0.468614;8.938903;1.371106;-0.594615;0.585378
833;8320;-3.244143;-0.461276;8.770532;1.410733;-0.457027;0.646995
834;8330;-3.055442;-0.356395;8.558451;1.461697;-0.268976;0.697395
835;8340;-2.744535;-0.300387;8.271946;1.539893;-0.000962;0.708747
836;8350;-2.891695;-0.218824;8.105843;1.650930;0.301406;0.737128
837;8360;-3.180989;-0.159427;8.032644;1.784600;0.574710;0.736072
838;8370;-3.463292;0.038065;8.153771;1.924080;0.799071;0.708852
839;8380;-3.865760;0.278840;8.245408;2.050631;0.933079;0.656715
840;8390;-3.890299;0.744075;8.348505;2.164455;1.019311;0.659813
841;8400;-4.255626;1.874522;8.770409;2.159023;1.031587;0.829055
842;8410;-4.916839;2.888880;9.162023;1.851427;0.922040;0.995464
843;8420;-4.939914;2.956683;9.119033;1.407538;0.785486;0.971858
844;8430;-4.727850;2.306479;8.786413;1.086101;0.699350;0.961606
845;8440;-4.742832;1.758397;8.444653;0.978579;0.677520;0.943964
846;8450;-4.774581;1.389077;8.193066;1.040410;0.669439;0.939922
847;8460;-4.724643;1.434129;8.040651;1.190898;0.692436;0.923814
848;8470;-4.653307;1.821592;7.963088;1.337573;0.745117;0.865518
849;8480;-4.741889;2.101952;7.951353;1.436986;0.786545;0.846044
850;8490;-4.739723;2.415223;8.013093;1.485416;0.827701;0.815526
851;8500;-4.937291;2.816302;8.105114;1.488146;0.847244;0.802732
852;8510;-5.121862;3.183570;8.230492;1.423000;0.824149;0.840029
853;8520;-5.286697;3.506182;8.336563;1.295126;0.763026;0.831502
854;8530;-5.409900;3.599492;8.333516;1.135595;0.682056;0.792096
855;8540;-5.392176;3.622450;8.208631;0.961327;0.592532;0.703961
856;8550;-5.335585;3.570183;8.147431;0.832467;0.519190;0.638359
857;8560;-5.291003;3.506363;7.972989;0.729135;0.456512;0.625893
858;8570;-4.996367;3.374470;7.679370;0.684219;0.453526;0.551216
859;8580;-4.854774;3.352577;7.474176;0.692790;0.513621;0.504323
860;8590;-5.027547;3.384313;7.444845;0.712869;0.574766;0.456989
861;8600;-5.032893;3.534417;7.430117;0.719580;0.615773;0.421556
862;8610;-5.176959;3.707569;7.492684;0.694167;0.622624;0.388362
863;8620;-5.354302;3.807264;7.482196;0.626415;0.590044;0.372095
864;8630;-5.317790;3.837024;7.424813;0.554535;0.546965;0.371126
865;8640;-5.316682;3.759752;7.317284;0.489148;0.508544;0.382186
866;8650;-5.383249;3.735337;7.222336;0.451095;0.471060;0.351232
867;8660;-5.276794;3.598200;7.109005;0.423835;0.450707;0.288207
868;8670;-5.064142;3.490058;6.954925;0.464004;0.498837;0.224717
869;8680;-5.264837;3.707837;7.007322;0.521541;0.555456;0.229605
870;8690;-5.427843;3.882675;7.091845;0.532095;0.567927;0.246795
871;8700;-5.490654;4.075235;7.061461;0.518366;0.566516;0.277873
872;8710;-5.570775;4.134217;7.039764;0.479736;0.578876;0.253549
873;8720;-5.517495;4.081042;6.924734;0.443508;0.600079;0.199268
874;8730;-5.468846;4.120063;6.836366;0.424763;0.646763;0.177954
875;8740;-5.491679;4.000580;6.659846;0.435137;0.703940;0.147325
876;8750;-5.399954;3.640054;6.402571;0.519437;0.774354;0.123882
877;8760;-5.494861;3.522338;6.351595;0.717319;0.859504;0.111397
878;8770;-5.727646;3.772745;6.441878;0.888440;0.907738;0.097471
879;8780;-5.901377;4.310482;6.660441;0.958019;0.937821;0.068024
880;8790;-5.803939;4.602655;6.668643;0.885915;0.988978;0.015421
881;8800;-5.855383;4.541733;6.493725;0.790627;1.068420;-0.006031
882;8810;-5.952918;3.847375;6.117193;0.784837;1.147067;-0.083553
883;8820;-5.754958;3.287133;5.809172;0.965000;1.285664;-0.213744
884;8830;-5.803928;3.221492;5.635965;1.256152;1.458190;-0.295129
885;8840;-6.251320;3.844375;5.809133;1.475470;1.589074;-0.334856
886;8850;-6.719656;4.853166;6.106490;1.512995;1.611612;-0.362821
887;8860;-7.402973;5.823384;6.578287;1.291444;1.441708;-0.222550
888;8870;-7.682185;5.894590;6.617757;0.894876;1.153720;-0.112624
889;8880;-7.361538;5.338981;6.251411;0.561622;0.936469;-0.132924
890;8890;-7.036449;4.701412;5.772285;0.385530;0.852149;-0.170737
891;8900;-6.914857;4.510042;5.426892;0.336317;0.843406;-0.209336
892;8910;-7.031704;4.390785;5.277428;0.310348;0.831449;-0.231451
893;8920;-6.951832;4.263975;5.109122;0.287363;0.841409;-0.285917
894;8930;-6.975363;4.259496;4.967772;0.266261;0.877421;-0.336216
895;8940;-7.104938;4.387498;4.987543;0.222235;0.894890;-0.378477
896;8950;-7.287986;4.501361;5.060198;0.158607;0.848945;-0.393893
897;8960;-7.426304;4.514450;5.060621;0.091895;0.747311;-0.376705
898;8970;-7.596274;4.726783;5.174577;0.020978;0.614788;-0.363712
899;8980;-7.776080;4.930034;5.285209;-0.076314;0.433262;-0.318550
900;8990;-7.765876;4.808689;5.257027;-0.194460;0.249155;-0.287271
901;9000;-7.596980;4.664136;5.148742;-0.291315;0.147155;-0.317934
902;9010;-7.408065;4.458646;4.950199;-0.373183;0.122880;-0.380749
903;9020;-7.358910;4.233518;4.749061;-0.423358;0.128782;-0.442525
904;9030;-7.331814;4.063107;4.715807;-0.440973;0.132705;-0.490947
905;9040;-7.365604;4.027634;4.722462;-0.437433;0.120194;-0.546311
906;9050;-7.376279;3.968747;4.715204;-0.440934;0.100743;-0.596512
907;9060;-7.399538;4.002740;4.686098;-0.452612;0.091462;-0.661610
908;9070;-7.548150;4.070698;4.685831;-0.488461;0.071660;-0.732810
909;9080;-7.495114;4.118951;4.684985;-0.538922;0.021357;-0.778126
910;9090;-7.515588;4.060840;4.655371;-0.586891;-0.012317;-0.778651
911;9100;-7.562178;4.072137;4.694790;-0.613830;-0.033401;-0.791063
912;9110;-7.670416;3.902976;4.686990;-0.624283;-0.081263;-0.762456
913;9120;-7.710332;3.655265;4.719877;-0.582318;-0.123767;-0.751322
914;9130;-7.522172;3.566996;4.638993;-0.506015;-0.123316;-0.753893
915;9140;-7.545558;3.540886;4.680249;-0.432668;-0.082750;-0.736690
916;9150;-7.609194;3.710750;4.714666;-0.413813;-0.033499;-0.765474
917;9160;-7.605818;3.879750;4.751696;-0.477334;0.015412;-0.771267
918;9170;-7.754237;3.853305;4.782054;-0.582831;0.035657;-0.789689
919;9180;-7.793912;3.678431;4.871092;-0.684424;0.027623;-0.818438
920;9190;-7.769401;3.441502;4.931316;-0.799810;-0.009886;-0.841342
921;9200;-7.555830;3.147133;4.794170;-0.863800;-0.035550;-0.876977
922;9210;-7.359822;2.845131;4.773921;-0.856726;-0.027599;-0.860364
923;9220;-7.378629;2.690366;4.777990;-0.838096;0.025875;-0.863691
924;9230;-7.261743;2.711759;4.634955;-0.830498;0.155163;-0.902500
925;9240;-7.509426;2.798892;4.747621;-0.833127;0.277056;-0.902647
926;9250;-7.973999;2.664425;4.933287;-0.850934;0.273370;-0.904066
927;9260;-8.119324;2.536370;5.120792;-0.876877;0.201516;-0.964367
928;9270;-8.109055;2.747392;5.339778;-0.926489;0.093572;-0.984663
929;9280;-8.401232;2.904813;5.538318;-1.064960;-0.062371;-0.955801
930;9290;-8.584014;2.611762;5.626534;-1.224419;-0.229195;-1.006516
931;9300;-8.629617;2.414402;5.784526;-1.375441;-0.379890;-1.180312
932;9310;-8.142114;2.383689;5.656716;-1.567001;-0.499437;-1.300502
933;9320;-7.631727;1.632463;5.135507;-1.654429;-0.521278;-1.271730
934;9330;-7.374540;0.861223;4.830947;-1.504034;-0.414611;-1.247662
935;9340;-7.369164;0.677949;4.844218;-1.233056;-0.272069;-1.220875
936;9350;-7.581301;0.735071;5.098580;-0.966822;-0.163944;-1.165980
937;9360;-7.792512;0.937535;5.272584;-0.775294;-0.105566;-1.097974
938;9370;-8.046204;0.953526;5.527545;-0.666685;-0.090318;-1.070835
939;9380;-8.244658;0.952788;5.745508;-0.627995;-0.111515;-1.071228
940;9390;-8.370370;1.002422;5.929317;-0.657446;-0.173937;-1.128088
941;9400;-8.521113;1.315737;6.280001;-0.787728;-0.258231;-1.206883
942;9410;-8.532353;1.495481;6.389468;-1.034609;-0.400978;-1.255791
943;9420;-8.353168;1.398287;6.269434;-1.269188;-0.564242;-1.208929
944;9430;-8.199445;1.013664;6.081044;-1.431673;-0.687429;-1.108719
945;9440;-8.038248;0.339297;5.819065;-1.441864;-0.745536;-1.028838
946;9450;-7.799810;-0.268304;5.568242;-1.310354;-0.699308;-0.970930
947;9460;-7.593512;-0.700754;5.436016;-1.095344;-0.552060;-0.959654
948;9470;-7.483459;-0.753190;5.445174;-0.882019;-0.329604;-0.950160
949;9480;-7.513989;-0.758964;5.495938;-0.725765;-0.102609;-0.951009
950;9490;-7.644696;-0.701482;5.614269;-0.641900;0.108197;-0.976283
951;9500;-7.782379;-0.703492;5.700288;-0.598088;0.251282;-1.025794
952;9510;-7.997453;-0.682845;5.886320;-0.568666;0.306854;-1.054462
953;9520;-8.371023;-0.282571;6.301321;-0.612409;0.254598;-1.062134
954;9530;-8.947368;0.326324;6.817560;-0.837492;0.019258;-1.091259
955;9540;-8.817462;0.312193;6.921010;-1.229259;-0.334281;-1.118496
956;9550;-8.532043;-0.002367;6.689869;-1.586908;-0.661519;-1.105356
957;9560;-8.039206;-0.641631;6.165492;-1.849098;-0.886147;-1.072739
958;9570;-7.364215;-1.492421;5.613232;-1.949370;-0.944144;-1.039939
959;9580;-6.864896;-2.240335;5.169504;-1.857863;-0.825329;-0.979907
960;9590;-6.626232;-2.828159;4.977740;-1.636117;-0.584214;-0.919603
961;9600;-6.516923;-3.248368;4.945637;-1.328155;-0.305034;-0.855505
962;9610;-6.716881;-3.475658;5.154348;-0.973553;-0.077000;-0.758300
963;9620;-6.936663;-3.368028;5.490086;-0.649336;0.069832;-0.685319
964;9630;-7.331503;-2.985648;5.840233;-0.430703;0.127039;-0.601921
965;9640;-7.925372;-2.358284;6.480716;-0.384874;0.046343;-0.533210
966;9650;-8.397318;-1.965478;6.937393;-0.581839;-0.205281;-0.527579
967;9660;-8.343752;-2.092669;6.852347;-0.868641;-0.507250;-0.571282
968;9670;-8.014199;-2.312436;6.569235;-1.134507;-0.743697;-0.621116
969;9680;-7.499897;-2.754041;6.004165;-1.348944;-0.864903;-0.662825
970;9690;-6.865513;-3.523687;5.354514;-1.385398;-0.840943;-0.680679
971;9700;-6.349085;-4.076370;4.919246;-1.212853;-0.703023;-0.648332
972;9710;-6.118700;-4.445159;4.756667;-0.891159;-0.534891;-0.534610
973;9720;-6.245294;-4.693744;4.889515;-0.456739;-0.390161;-0.406034
974;9730;-6.611156;-4.033293;5.560416;-0.023238;-0.392762;-0.231481
975;9740;-7.243149;-4.310024;6.027955;0.257969;-0.591236;-0.059978
976;9750;-7.232789;-4.737076;6.325717;0.576967;-0.749698;-0.125542
977;9760;-7.557261;-3.344350;7.112832;0.674554;-0.919191;-0.224100
978;9770;-7.987457;-2.349276;7.473682;0.278812;-1.238650;-0.291070
979;9780;-7.368788;-2.539296;6.829427;-0.272626;-1.446502;-0.417532
980;9790;-6.395036;-3.159772;5.807939;-0.628709;-1.401022;-0.529786
981;9800;-5.374950;-4.304494;4.672468;-0.548915;-1.134542;-0.540062
982;9810;-4.854255;-5.147961;4.063163;0.037293;-0.703094;-0.454716
983;9820;-5.306610;-4.694287;4.351937;0.851729;-0.317326;-0.285605
984;9830;-6.129622;-3.711537;5.263032;1.475439;-0.148876;-0.068888
985;9840;-6.748727;-3.059895;6.188404;1.766616;-0.187844;0.045695
986;9850;-6.931884;-2.505712;6.964391;1.807219;-0.302402;0.071710
987;9860;-7.007411;-2.018830;7.521452;1.598423;-0.440393;0.048288
988;9870;-6.917623;-1.822961;7.611814;1.247863;-0.555619;-0.053077
989;9880;-6.649955;-2.101953;7.378740;0.949376;-0.641975;-0.103367
990;9890;-6.286639;-2.586641;6.893524;0.848957;-0.656402;-0.138381
991;9900;-5.896734;-2.673480;6.603938;0.929736;-0.590128;-0.157167
992;9910;-5.827602;-2.477554;6.471330;1.090338;-0.471267;-0.124243
993;9920;-5.989413;-2.068551;6.683727;1.245065;-0.399203;-0.048863
994;9930;-6.225426;-1.774643;6.979058;1.317681;-0.391344;-0.001758
995;9940;-6.136901;-1.584658;7.144276;1.330531;-0.364534;0.005610
996;9950;-6.100876;-1.461027;7.313812;1.332560;-0.323885;0.008520
997;9960;-6.197649;-1.264760;7.522553;1.327807;-0.306853;0.021582
998;9970;-6.378292;-0.831033;7.839003;1.245195;-0.357607;0.055209
999;9980;-6.414517;-0.561126;7.829973;1.075046;-0.424872;0.058477
1000;9990;-6.182966;-0.493320;7.793711;0.911751;-0.442558;0.056781
1001;10000;-6.227887;-0.581484;7.760779;0.817032;-0.467416;0.096486
1002;10010;-6.024085;-1.008293;7.761121;0.802403;-0.499246;0.115916
1003;10020;-5.715493;-1.178916;7.752053;0.891907;-0.479658;0.152941
1004;10030;-5.750372;-1.397915;7.872855;1.061866;-0.454707;0.212774
1005;10040;-5.758440;-1.489342;7.905567;1.275381;-0.438076;0.255140
1006;10050;-5.545625;-1.509864;7.919180;1.500653;-0.388472;0.282266
1007;10060;-5.557613;-0.644865;8.098502;1.625226;-0.276708;0.276417
1008;10070;-5.801886;-0.195686;8.248684;1.566746;-0.231235;0.269870
1009;10080;-5.852104;-0.498753;8.153401;1.540970;-0.247999;0.291727
1010;10090;-5.849304;-0.256201;8.228987;1.594469;-0.305312;0.311995
1011;10100;-5.988583;0.047740;8.346344;1.610151;-0.426831;0.378562
1012;10110;-5.907067;0.320198;8.421060;1.557427;-0.557567;0.427787
1013;10120;-5.548477;0.419471;8.453248;1.442196;-0.619163;0.421920
1014;10130;-5.307403;0.307506;8.285200;1.339769;-0.621862;0.428448
1015;10140;-5.247059;0.069348;8.237404;1.311043;-0.608863;0.481241
1016;10150;-5.496231;-0.245661;8.249986;1.371227;-0.624451;0.500734
1017;10160;-5.214808;-0.090856;8.353218;1.402325;-0.625102;0.447842
1018;10170;-4.974428;0.067619;8.257742;1.416005;-0.592262;0.431533
1019;10180;-4.899179;0.071702;8.133609;1.420104;-0.521610;0.396788
1020;10190;-4.857399;0.193673;8.055500;1.473926;-0.445594;0.341540
1021;10200;-5.354054;0.585915;8.273091;1.535009;-0.479604;0.400208
1022;10210;-5.665906;1.196486;8.601581;1.463042;-0.631957;0.450724
1023;10220;-5.560361;1.584027;8.784205;1.280736;-0.799342;0.456520
1024;10230;-5.226930;1.699394;8.740072;1.035514;-0.920907;0.473003
1025;10240;-4.816531;1.495128;8.478981;0.831161;-0.950144;0.475066
1026;10250;-4.709734;1.047116;8.262166;0.742702;-0.907035;0.462998
1027;10260;-4.727588;0.774052;8.104784;0.766367;-0.848513;0.429256
1028;10270;-4.515640;0.910505;8.020362;0.841257;-0.788692;0.406482
1029;10280;-4.566933;1.345381;8.214675;0.876713;-0.757923;0.452456
1030;10290;-4.499804;1.744102;8.373429;0.780417;-0.721477;0.395452
1031;10300;-4.195898;1.773203;8.349461;0.638449;-0.689971;0.322847
1032;10310;-4.166668;1.486301;8.430801;0.587640;-0.660260;0.356096
1033;10320;-4.509813;1.275081;8.666219;0.619193;-0.722829;0.366763
1034;10330;-4.613557;1.229974;8.940301;0.675835;-0.853485;0.335822
1035;10340;-4.459055;1.629600;9.085161;0.669928;-0.997766;0.276255
1036;10350;-3.969524;2.013627;9.125624;0.596077;-1.113757;0.286041
1037;10360;-4.212198;2.489790;9.180121;0.453699;-1.220091;0.423033
1038;10370;-3.981950;2.409716;8.878357;0.204640;-1.299286;0.410584
1039;10380;-3.228903;1.762572;8.317290;0.124384;-1.251805;0.402199
1040;10390;-3.249855;1.515276;8.136737;0.201173;-1.098516;0.412632
1041;10400;-3.348046;1.574258;8.218592;0.334275;-0.968343;0.293492
1042;10410;-3.490404;1.428820;8.492404;0.535812;-0.924867;0.324814
1043;10420;-3.552947;1.732465;8.959393;0.709172;-0.946751;0.410933
1044;10430;-3.211096;2.173710;9.252278;0.755053;-0.960812;0.354101
1045;10440;-2.805787;2.347935;9.263498;0.721926;-0.927608;0.312517
1046;10450;-2.800417;2.197675;9.228765;0.721810;-0.900890;0.367448
1047;10460;-2.849871;2.104078;9.216964;0.758936;-0.876801;0.436060
1048;10470;-2.577914;2.172855;9.115325;0.807289;-0.833026;0.425369
1049;10480;-2.406085;2.336487;9.017488;0.818696;-0.747330;0.400457
1050;10490;-1.969496;2.563122;8.834406;0.793054;-0.613805;0.341008
1051;10500;-2.046561;2.449125;8.805965;0.826784;-0.473675;0.376788
1052;10510;-2.400309;2.609099;9.031729;0.849550;-0.405662;0.441694
1053;10520;-2.415573;2.796298;9.209872;0.821965;-0.380645;0.389119
1054;10530;-2.365417;2.759604;9.309844;0.801978;-0.369688;0.321600
1055;10540;-2.337484;2.708090;9.431686;0.830590;-0.396735;0.330216
1056;10550;-2.554757;2.603759;9.692064;0.953514;-0.470181;0.426619
1057;10560;-2.820064;2.951771;10.066988;1.033427;-0.619812;0.528201
1058;10570;-2.675827;3.576298;10.333062;0.991613;-0.797923;0.565086
1059;10580;-2.572136;4.000051;10.339337;0.788417;-0.978037;0.574904
1060;10590;-1.702392;3.481027;9.552277;0.586545;-1.049539;0.497738
1061;10600;-0.730369;2.845219;8.854402;0.619928;-0.881836;0.500500
1062;10610;-1.076752;2.820202;8.737596;0.813277;-0.662681;0.529711
1063;10620;-1.594018;3.333071;9.043807;0.911453;-0.565072;0.578962
1064;10630;-1.600672;3.733532;9.255419;0.909880;-0.575527;0.572065
1065;10640;-1.422680;3.358931;9.234810;0.982987;-0.635731;0.712008
1066;10650;-0.962339;3.748330;9.270481;1.091620;-0.627469;0.969160
1067;10660;-0.292955;4.391297;9.131400;1.072090;-0.516394;0.987930
1068;10670;-0.156442;4.466668;9.128755;0.959424;-0.298498;0.914428
1069;10680;-0.917164;4.580713;9.213144;0.734891;-0.150427;0.705968
1070;10690;-0.920009;3.838844;8.930190;0.577610;-0.112797;0.466725
1071;10700;-0.937470;3.186505;8.700010;0.717689;-0.074408;0.504408
1072;10710;-0.860271;3.632186;8.687213;0.897909;-0.024993;0.545501
1073;10720;-0.269120;4.115336;8.525786;1.015232;0.096044;0.455044
1074;10730;-0.020105;4.207510;8.387854;1.122359;0.295826;0.376248
1075;10740;0.279822;3.862053;7.974536;1.325538;0.584031;0.239409
1076;10750;-0.080993;4.529784;7.986263;1.627916;0.940423;0.114914
1077;10760;-1.051959;5.688491;8.318534;1.724890;1.160557;0.014807
1078;10770;-1.202329;6.549148;8.384332;1.515692;1.274173;-0.109014
1079;10780;-1.070823;6.742343;8.057355;1.207939;1.407851;-0.260535
1080;10790;-1.559867;6.328300;7.760710;1.010240;1.516562;-0.283977
1081;10800;-2.271561;6.001065;7.741752;0.994211;1.532868;-0.120469
1082;10810;-2.648649;6.177668;7.890412;1.040087;1.462441;0.032513
1083;10820;-2.363048;6.280987;7.874209;1.048748;1.392048;0.077112
1084;10830;-1.902797;5.958726;7.565540;1.095356;1.437462;0.066086
1085;10840;-1.689207;5.552265;7.083771;1.249157;1.606521;0.003800
1086;10850;-1.589199;5.799582;6.827208;1.395744;1.877133;-0.128251
1087;10860;-1.269660;6.126359;6.439362;1.378936;2.236674;-0.355224
1088;10870;-1.693134;6.392601;6.214787;1.352069;2.626737;-0.591557
1089;10880;-3.985699;6.320435;6.728211;1.362761;2.652839;-0.446461
1090;10890;-4.906826;6.934195;7.330748;1.243299;2.335367;-0.012888
1091;10900;-4.748544;7.617784;7.749155;0.979656;1.945287;0.038485
1092;10910;-4.069712;7.076869;7.593490;0.633881;1.654514;-0.051312
1093;10920;-3.254936;6.668501;7.089021;0.408766;1.606222;-0.011763
1094;10930;-3.193924;6.378951;6.625472;0.269598;1.707209;-0.046568
1095;10940;-2.997043;5.968278;6.063990;0.159274;1.924764;-0.178977
1096;10950;-3.009943;5.443517;5.508921;0.105660;2.233801;-0.380480
1097;10960;-3.262513;4.881724;4.975669;0.197270;2.553836;-0.605494
1098;10970;-5.328384;5.704164;5.691997;0.468298;2.506944;-0.387961
1099;10980;-7.317299;6.881430;6.949524;0.370377;1.897713;0.132891
1100;10990;-6.333881;7.531596;7.379371;0.023546;1.253011;0.018392
1101;11000;-5.323774;7.366200;7.252579;-0.382266;0.844412;0.029329
1102;11010;-4.887930;7.257072;6.773233;-0.783725;0.648738;0.126874
1103;11020;-4.336519;6.482091;5.965831;-1.058391;0.654455;0.052021
1104;11030;-4.038915;5.687473;5.396373;-1.137233;0.811268;0.015097
1105;11040;-3.618223;5.411355;4.786819;-1.136379;1.121434;-0.074132
1106;11050;-4.075041;5.133997;4.630506;-1.071937;1.463149;-0.268295
1107;11060;-4.920562;5.229628;4.878314;-1.047475;1.621072;-0.415204
1108;11070;-5.984005;5.996248;5.673507;-1.082325;1.463911;-0.339144
1109;11080;-6.920269;6.311100;6.440125;-1.294183;0.973689;-0.083252
1110;11090;-6.234133;7.047228;6.930622;-1.602870;0.543700;-0.056529
1111;11100;-6.305553;7.508772;7.281668;-2.117785;0.198360;0.043474
1112;11110;-6.013982;6.854092;7.111910;-2.656386;-0.089474;0.068940
1113;11120;-5.787135;5.752110;6.738354;-3.008136;-0.277752;0.107678
1114;11130;-4.947853;4.176869;5.950019;-3.110218;-0.302368;0.085532
1115;11140;-4.033682;2.776040;5.208342;-2.840398;-0.043073;-0.002910
1116;11150;-3.567207;2.119029;4.819769;-2.339927;0.418511;-0.122657
1117;11160;-4.448547;2.409044;5.331700;-1.701428;0.773631;-0.192269
1118;11170;-5.716741;3.030039;6.340201;-1.278310;0.785724;-0.147135
1119;11180;-5.691162;3.513707;6.988294;-1.036797;0.637480;-0.159100
1120;11190;-5.651755;3.835096;7.248055;-0.956372;0.527505;-0.160113
1121;11200;-5.476898;4.027503;7.104141;-0.982936;0.492705;-0.203573
1122;11210;-5.589346;3.919926;6.954811;-1.018802;0.489874;-0.246225
1123;11220;-5.515034;3.763369;6.755593;-1.052756;0.498465;-0.259843
1124;11230;-5.201386;3.754633;6.504745;-1.062943;0.606092;-0.283657
1125;11240;-5.288621;3.680378;6.374381;-1.052174;0.754855;-0.336954
1126;11250;-5.199063;3.596327;6.136554;-1.030297;0.938973;-0.340631
1127;11260;-5.675170;3.876249;6.223973;-0.966184;1.078140;-0.351595
1128;11270;-6.453341;4.060096;6.533208;-0.959037;1.010701;-0.260985
1129;11280;-6.406992;4.057314;6.709674;-0.985970;0.870102;-0.226751
1130;11290;-6.043928;4.108028;6.791145;-1.042022;0.830730;-0.224169
1131;11300;-5.836054;3.967934;6.672257;-1.115463;0.906054;-0.240948
1132;11310;-6.072748;3.680279;6.748485;-1.164439;0.992210;-0.284454
1133;11320;-6.406942;3.502300;6.988724;-1.190229;1.005357;-0.310581
1134;11330;-6.351234;3.274200;7.011492;-1.201382;1.012622;-0.330272
1135;11340;-6.448023;3.161276;7.001960;-1.157583;1.041816;-0.351576
1136;11350;-6.560789;3.041089;7.004749;-1.099733;1.056142;-0.377482
1137;11360;-6.343703;2.895963;6.917308;-1.026431;1.148387;-0.415846
1138;11370;-6.673058;2.858983;7.050021;-0.937514;1.232151;-0.490158
1139;11380;-6.826134;2.762781;7.122925;-0.869062;1.219208;-0.521050
1140;11390;-7.128066;3.038892;7.311486;-0.802854;1.097350;-0.453548
1141;11400;-7.250901;2.850194;7.385480;-0.803445;0.901349;-0.384066
1142;11410;-6.804693;2.711587;7.170051;-0.792381;0.809394;-0.395227
1143;11420;-6.764222;2.647747;6.920228;-0.822783;0.810765;-0.406775
1144;11430;-6.797788;2.575670;6.781245;-0.891259;0.846632;-0.462716
1145;11440;-6.873437;2.308332;6.664340;-0.986711;0.883109;-0.561903
1146;11450;-6.891818;2.022179;6.555134;-1.048749;0.915191;-0.685899
1147;11460;-6.916160;1.906033;6.566350;-1.104313;0.915727;-0.772509
1148;11470;-7.013339;1.764023;6.612203;-1.168532;0.894295;-0.874578
1149;11480;-7.269665;1.707349;6.732757;-1.244662;0.785256;-0.934456
1150;11490;-7.369521;1.515654;6.838303;-1.327497;0.580073;-0.960629
1151;11500;-7.269729;1.553931;6.780247;-1.432042;0.364183;-0.881554
1152;11510;-6.964499;0.779488;6.328351;-1.501883;0.271479;-0.862258
1153;11520;-6.419381;0.263883;5.908206;-1.448209;0.393193;-0.964410
1154;11530;-6.638155;-0.052122;5.761236;-1.365638;0.541740;-0.976116
1155;11540;-6.846992;-0.228786;5.709385;-1.256390;0.649811;-1.059183
1156;11550;-7.125075;0.104167;5.903163;-1.167335;0.720548;-1.120031
1157;11560;-7.575025;0.532086;6.130058;-1.155583;0.719291;-1.133970
1158;11570;-7.961185;0.848458;6.341395;-1.209712;0.611136;-1.083532
1159;11580;-8.182178;0.705201;6.358136;-1.258803;0.425150;-0.995494
1160;11590;-8.210571;0.560006;6.306697;-1.290185;0.265732;-0.940340
1161;11600;-8.199905;0.429177;6.271776;-1.369098;0.172614;-0.973142
1162;11610;-8.184771;0.321516;6.180836;-1.474584;0.113480;-1.037197
1163;11620;-8.208116;0.202818;6.095886;-1.639630;0.065782;-1.150149
1164;11630;-7.915619;-0.116125;5.861176;-1.811540;0.062704;-1.287628
1165;11640;-7.771858;-0.659247;5.674682;-1.916415;0.062539;-1.373006
1166;11650;-7.485063;-1.216963;5.555223;-1.887467;0.068926;-1.413073
1167;11660;-7.301223;-1.467040;5.488267;-1.748284;0.033035;-1.320966
1168;11670;-7.405669;-1.820713;5.398582;-1.554840;-0.042969;-1.151589
1169;11680;-7.124109;-2.201830;5.227188;-1.311657;-0.040251;-1.090006
1170;11690;-7.195791;-1.980522;5.414602;-1.106536;0.017045;-0.996481
1171;11700;-7.818055;-1.592357;5.731226;-1.100874;-0.027949;-0.964300
1172;11710;-7.904197;-1.551103;5.844156;-1.222294;-0.154462;-1.080266
1173;11720;-7.821545;-1.373122;5.785962;-1.415535;-0.264593;-1.134008
1174;11730;-7.946012;-1.556245;5.696026;-1.653313;-0.361288;-1.216282
1175;11740;-7.819716;-2.078776;5.453581;-1.791893;-0.419230;-1.367950
1176;11750;-7.581973;-2.446336;5.286688;-1.780800;-0.432341;-1.427296
1177;11760;-7.427916;-2.842987;5.180660;-1.656422;-0.422229;-1.393768
1178;11770;-7.259859;-3.252736;5.151626;-1.420204;-0.385854;-1.297620
1179;11780;-7.654037;-3.044831;5.580286;-1.191035;-0.374994;-1.163828
1180;11790;-8.364707;-2.366694;6.113135;-1.233574;-0.496605;-1.204133
1181;11800;-8.346938;-1.997100;6.451155;-1.517641;-0.691007;-1.349367
1182;11810;-8.396936;-1.958011;6.461643;-1.952398;-0.912329;-1.528851
1183;11820;-7.388676;-2.684109;5.961548;-2.347596;-1.052354;-1.684009
1184;11830;-6.291048;-4.172834;5.079531;-2.382329;-1.006092;-1.605340
1185;11840;-5.631775;-5.665501;4.392350;-1.948111;-0.759755;-1.423881
1186;11850;-5.195633;-6.508042;4.159837;-1.164418;-0.419766;-1.199263
1187;11860;-5.528631;-6.594892;4.489718;-0.280397;-0.149956;-0.866909
1188;11870;-6.383924;-6.234103;5.189277;0.462729;-0.026985;-0.660123
1189;11880;-7.295715;-4.979191;6.161349;0.809849;-0.084960;-0.733176
1190;11890;-7.349860;-3.673969;6.643114;0.657136;-0.290730;-0.838685
1191;11900;-7.027075;-3.421784;6.554013;0.262989;-0.486010;-0.819024
1192;11910;-6.878569;-3.976728;6.166300;-0.065626;-0.616712;-0.833865
1193;11920;-6.528871;-4.512027;5.829974;-0.241016;-0.690091;-0.945957
1194;11930;-5.950273;-4.972240;5.268928;-0.226546;-0.715296;-0.959109
1195;11940;-5.845827;-6.017870;4.920728;0.066875;-0.732063;-0.926295
1196;11950;-5.267945;-5.867149;4.969617;0.548814;-0.672574;-0.844892
1197;11960;-5.559181;-5.264568;5.418514;0.918508;-0.653178;-0.665362
1198;11970;-6.079424;-5.062355;5.931962;1.091640;-0.730670;-0.575858
1199;11980;-5.952033;-4.829574;6.375202;1.135765;-0.818817;-0.608724
1200;11990;-6.059803;-3.863692;7.030029;0.995540;-0.894653;-0.548624
1201;12000;-7.043753;-3.652567;7.488471;0.622212;-1.125289;-0.622970
1202;12010;-6.121557;-3.810941;7.263607;0.255354;-1.354628;-0.778945
1203;12020;-5.548876;-4.321254;6.858352;0.066179;-1.476683;-0.685634
1204;12030;-5.189401;-5.188652;6.219867;0.097047;-1.495421;-0.619014
1205;12040;-4.290215;-5.857403;5.724260;0.368117;-1.301394;-0.561581
1206;12050;-4.761863;-5.959516;5.922213;0.764179;-1.072718;-0.553808
1207;12060;-5.126040;-5.080326;6.411282;0.960089;-0.983170;-0.650943
1208;12070;-5.571242;-4.440225;6.997992;0.893327;-1.004759;-0.760106
1209;12080;-6.125569;-3.533065;7.624606;0.611427;-1.170598;-0.997590
1210;12090;-6.080447;-2.632381;7.935793;0.110900;-1.475417;-1.097626
1211;12100;-5.795668;-3.271649;7.390950;-0.397074;-1.800089;-1.154234
1212;12110;-4.042902;-4.245283;6.421928;-0.571238;-1.854544;-1.146027
1213;12120;-3.140497;-5.570787;5.583697;-0.368706;-1.617441;-0.900319
1214;12130;-3.723546;-6.430030;5.680914;0.123449;-1.294180;-0.879096
1215;12140;-3.286954;-5.440831;6.479770;0.498289;-1.032092;-0.909430
1216;12150;-3.402591;-4.728978;6.852892;0.595917;-0.917242;-0.581545
1217;12160;-4.718609;-5.744013;7.531554;0.701069;-1.009085;-0.497191
1218;12170;-4.617615;-5.439773;8.182641;0.856066;-1.291792;-0.627884
1219;12180;-3.593265;-4.830318;8.176579;0.859422;-1.582971;-0.510564
1220;12190;-2.671090;-4.926633;7.535913;0.874465;-1.549733;-0.404344
1221;12200;-2.081250;-5.029001;7.023338;0.848575;-1.278646;-0.363331
1222;12210;-2.639844;-5.196773;7.188627;0.950830;-1.037291;-0.336706
1223;12220;-2.808930;-5.201108;7.386354;1.085874;-0.986497;-0.294734
1224;12230;-2.877623;-5.223473;7.693827;1.251301;-1.029336;-0.170970
1225;12240;-2.521240;-4.918059;7.934737;1.309065;-1.044318;-0.173934
1226;12250;-2.069477;-4.724618;7.939071;1.280130;-0.958234;-0.143765
1227;12260;-2.403746;-5.091966;8.003135;1.283477;-0.937902;-0.082493
1228;12270;-2.245936;-5.334511;8.198345;1.436729;-0.981333;-0.010238
1229;12280;-1.846532;-4.708758;8.377469;1.566277;-0.946627;0.042226
1230;12290;-1.471371;-4.094128;8.445139;1.524596;-0.769913;0.031897
1231;12300;-2.005911;-4.175460;8.538273;1.452511;-0.595244;-0.003213
1232;12310;-1.815164;-4.518385;8.495687;1.469795;-0.495131;-0.083000
1233;12320;-1.788740;-4.668202;8.624111;1.682786;-0.412211;-0.064846
1234;12330;-2.065388;-4.136551;9.021809;1.900741;-0.396707;-0.047778
1235;12340;-2.332002;-3.425898;9.421215;2.005944;-0.501531;0.061025
1236;12350;-2.253621;-3.074977;9.514070;2.035131;-0.634623;0.174495
1237;12360;-1.361000;-2.488678;9.277631;1.969546;-0.578356;0.251319
1238;12370;-1.469033;-2.686748;9.321688;1.904711;-0.348644;0.299254
1239;12380;-2.665394;-2.760604;9.889520;1.866979;-0.190336;0.131141
1240;12390;-2.008075;-2.543635;9.967418;1.805940;-0.153276;-0.053512
1241;12400;-2.621730;-2.775430;10.019543;1.928044;-0.198676;0.067807
1242;12410;-3.054347;-2.844148;10.397242;2.139562;-0.386194;0.098512
1243;12420;-3.056900;-2.439534;10.715699;2.352233;-0.693784;0.149083
1244;12430;-2.399358;-1.557032;10.589076;2.412780;-0.953990;0.222119
1245;12440;-1.365781;-0.905851;10.127953;2.301645;-0.971166;0.220346
1246;12450;-1.089369;-0.614865;9.699994;2.119501;-0.795517;0.200304
1247;12460;-0.689141;-0.421554;9.243388;1.927186;-0.513887;0.140281
1248;12470;-1.512456;-0.547763;9.245549;1.806223;-0.306995;0.158047
1249;12480;-1.746113;-0.749727;9.396680;1.741288;-0.287266;0.201773
1250;12490;-1.788932;-1.165337;9.660425;1.837023;-0.338816;0.315196
1251;12500;-2.206605;-0.675563;10.469131;1.930649;-0.460334;0.349672
1252;12510;-1.701287;-0.736922;10.740184;1.899004;-0.651452;0.314126
1253;12520;-1.832958;-1.210263;10.724782;2.022869;-0.835353;0.383685
1254;12530;-1.571192;-0.946824;10.482748;2.165947;-1.017744;0.329013
1255;12540;0.572044;0.042238;9.616043;2.184216;-0.851046;0.247229
1256;12550;0.587105;0.326142;8.980213;2.131498;-0.406670;0.036514
1257;12560;-0.368534;0.240293;8.661073;2.107656;-0.069671;-0.096446
1258;12570;-0.523053;0.202795;8.452121;2.166017;0.109839;-0.138798
1259;12580;-0.827845;0.329838;8.571606;2.331512;0.201149;-0.069996
1260;12590;-0.882233;0.625498;8.872973;2.445770;0.211578;0.007883
1261;12600;-0.581810;0.721530;9.152074;2.602727;0.237652;0.077223
1262;12610;-1.433704;2.468905;10.101087;2.571839;0.172272;0.269884
1263;12620;-1.431167;3.180864;10.071444;2.125134;-0.026453;0.348199
1264;12630;-0.028475;2.389085;9.134416;1.860922;0.022184;0.416801
1265;12640;-0.445911;2.081561;8.756313;1.841458;0.237396;0.468593
1266;12650;-0.540482;2.228358;8.452940;1.837988;0.434749;0.409948
1267;12660;-0.278083;2.057025;8.162297;1.840112;0.686757;0.316469
1268;12670;-0.499010;1.630363;7.820583;1.970101;0.976693;0.190373
1269;12680;-0.707807;1.695995;7.940450;2.186228;1.263697;0.021860
1270;12690;-1.497698;3.113485;8.911682;2.263590;1.433340;-0.129942
1271;12700;-2.405866;5.153081;10.118457;1.868095;1.353574;-0.167672
1272;12710;-2.046979;6.260417;10.321649;1.057718;1.167297;-0.091566
1273;12720;-1.336000;6.163196;9.788272;0.229827;1.140185;0.111897
1274;12730;-1.361414;4.836847;8.830991;-0.332486;1.281362;0.272727
1275;12740;-1.039545;3.219844;7.699970;-0.496341;1.592040;0.276724
1276;12750;-1.347976;2.145123;7.071321;-0.252443;2.012998;0.277525
1277;12760;-2.428279;2.191099;7.040215;0.135672;2.328524;0.308115
1278;12770;-4.074703;2.012705;7.768288;0.610001;2.310189;0.415204
1279;12780;-4.350798;2.276047;8.463038;0.948244;2.091814;0.393292
1280;12790;-2.994030;2.539744;8.642980;1.185701;2.033958;0.055280
1281;12800;-2.953155;3.197927;8.881218;1.295663;2.096778;-0.090490
1282;12810;-3.148599;3.706208;8.994456;1.207852;2.118149;-0.136875
1283;12820;-3.010059;4.072628;8.888902;1.080631;2.153451;-0.111666
1284;12830;-3.343336;4.407962;8.709116;0.894565;2.186675;-0.043671
1285;12840;-3.246624;4.263208;8.228347;0.735724;2.259986;-0.040102
1286;12850;-4.416481;4.190722;8.113679;0.734471;2.225049;0.086315
1287;12860;-5.016823;4.389438;8.241324;0.715884;2.021779;0.233997
1288;12870;-5.247585;4.416039;8.262378;0.701921;1.774441;0.253878
1289;12880;-4.787807;4.193394;7.866047;0.717338;1.588855;0.224142
1290;12890;-4.506188;4.377953;7.686028;0.797963;1.525072;0.250744
1291;12900;-4.800590;4.738728;7.699974;0.750326;1.500622;0.235500
1292;12910;-4.669073;4.704286;7.475892;0.608438;1.506581;0.104620
1293;12920;-4.376322;4.687213;7.166084;0.522633;1.579512;0.053852
1294;12930;-4.909968;4.785894;7.113267;0.442578;1.603706;0.047494
1295;12940;-5.004507;4.847746;7.025131;0.364331;1.543363;0.075346
1296;12950;-5.470046;4.806250;7.068843;0.354371;1.399172;0.199122
1297;12960;-5.469081;4.204799;6.846532;0.438254;1.199318;0.308212
1298;12970;-5.110952;4.272354;6.752351;0.665999;1.111901;0.391418
1299;12980;-5.482786;4.705062;6.892542;0.769255;1.046304;0.364817
1300;12990;-4.999656;4.607956;6.564268;0.792338;1.040171;0.283509
1301;13000;-4.731952;4.821838;6.284935;0.850826;1.159485;0.265847
1302;13010;-5.419947;5.024170;6.199580;0.881387;1.201944;0.234272
1303;13020;-4.986369;4.589327;5.854592;0.940294;1.245755;0.192061
1304;13030;-5.187371;5.016912;5.917929;1.109159;1.359450;0.189189
1305;13040;-6.126830;5.750718;6.312657;1.109134;1.299143;0.197503
1306;13050;-6.085687;6.278337;6.478818;0.918774;1.149563;0.182740
1307;13060;-6.109841;6.349941;6.353193;0.671751;0.992880;0.216466
1308;13070;-6.070305;5.851585;6.009269;0.500112;0.848219;0.224680
1309;13080;-5.590579;5.510226;5.597251;0.495842;0.828826;0.197933
1310;13090;-5.606106;5.613560;5.392949;0.526022;0.894983;0.193879
1311;13100;-5.656957;5.551128;5.190062;0.505735;0.997338;0.125881
1312;13110;-5.794929;5.751393;5.192863;0.462561;1.088384;0.090642
1313;13120;-6.263524;6.100346;5.277704;0.338198;1.085050;0.067366
1314;13130;-6.479445;6.093425;5.323247;0.156541;1.014818;0.035361
1315;13140;-6.628543;6.122380;5.395277;-0.010310;0.894817;0.018507
1316;13150;-6.727316;6.102086;5.486456;-0.215860;0.749506;0.017883
1317;13160;-6.503934;5.990694;5.400753;-0.439434;0.667828;-0.044505
1318;13170;-6.467398;5.935326;5.293802;-0.646665;0.651440;-0.071779
1319;13180;-6.596808;5.532280;5.135262;-0.784998;0.648925;-0.074151
1320;13190;-6.634578;5.531171;5.108685;-0.866289;0.691755;-0.098790
1321;13200;-6.964682;5.642776;5.030336;-0.945512;0.698932;-0.087133
1322;13210;-7.057467;5.239079;4.861582;-1.021770;0.675468;-0.087716
1323;13220;-6.691414;4.818618;4.598051;-1.003629;0.705056;-0.166180
1324;13230;-6.541127;4.601590;4.547188;-0.956275;0.767016;-0.256477
1325;13240;-6.317089;4.755850;4.458400;-0.959278;0.829587;-0.363566
1326;13250;-6.483449;4.824134;4.563773;-0.962448;0.844025;-0.423811
1327;13260;-6.339973;4.853708;4.509214;-1.002767;0.783105;-0.419906
1328;13270;-5.984577;4.410920;4.224339;-0.951794;0.823253;-0.421265
1329;13280;-6.033309;4.450993;4.198271;-0.828706;0.921257;-0.409774
1330;13290;-6.349570;4.669003;4.385624;-0.773774;1.000701;-0.422755
1331;13300;-6.583216;5.015959;4.635388;-0.817057;1.051131;-0.447103
1332;13310;-6.876831;5.252570;4.796503;-0.943056;1.058354;-0.457054
1333;13320;-7.021590;4.873695;4.820757;-1.035409;1.014195;-0.475733
1334;13330;-7.006254;4.697048;4.927116;-1.026630;0.977385;-0.504177
1335;13340;-7.220312;4.870863;5.272702;-1.043847;0.931587;-0.490358
1336;13350;-7.553709;4.709647;5.505814;-1.095675;0.805081;-0.466519
1337;13360;-7.368208;4.512445;5.507875;-1.145523;0.709659;-0.486065
1338;13370;-7.283868;4.354944;5.495390;-1.199629;0.698173;-0.514676
1339;13380;-7.315314;3.999073;5.379671;-1.227497;0.731256;-0.552825
1340;13390;-7.421176;3.697366;5.372328;-1.189941;0.755000;-0.581709
1341;13400;-7.501018;3.535102;5.391263;-1.102247;0.755151;-0.576559
1342;13410;-7.524422;3.575740;5.427036;-1.048825;0.783617;-0.599025
1343;13420;-7.650782;3.321656;5.463067;-0.985967;0.839441;-0.655278
1344;13430;-7.901156;3.177900;5.623273;-0.852270;0.823088;-0.648585
1345;13440;-8.133879;3.327275;5.845691;-0.746255;0.722854;-0.627547
1346;13450;-8.213250;3.511935;5.916433;-0.714247;0.577619;-0.585309
1347;13460;-8.199468;3.322503;5.655406;-0.709270;0.443114;-0.587188
1348;13470;-8.002202;3.309212;5.411417;-0.706516;0.359855;-0.611132
1349;13480;-7.967681;3.336803;5.197888;-0.744602;0.308757;-0.630287
1350;13490;-7.860896;3.212595;4.913377;-0.781240;0.302844;-0.646974
1351;13500;-7.856266;3.228677;4.702019;-0.827439;0.318148;-0.680143
1352;13510;-7.802939;3.046784;4.562362;-0.899174;0.394182;-0.752813
1353;13520;-7.873896;2.934560;4.517203;-0.941960;0.471081;-0.800393
1354;13530;-7.961472;2.779283;4.548234;-0.946957;0.492276;-0.813536
1355;13540;-7.940910;2.568860;4.544589;-0.857226;0.475893;-0.771735
1356;13550;-7.971587;2.394114;4.568901;-0.709140;0.470127;-0.704372
1357;13560;-8.125422;2.458220;4.712644;-0.541953;0.461078;-0.628512
1358;13570;-8.318715;2.564230;4.871963;-0.438227;0.450877;-0.582977
1359;13580;-8.495921;2.681547;5.017663;-0.412882;0.410698;-0.583436
1360;13590;-8.578358;2.749687;4.996274;-0.454736;0.353491;-0.610930
1361;13600;-8.474596;2.726248;4.849783;-0.549787;0.319853;-0.658716
1362;13610;-8.357593;2.464547;4.631665;-0.625712;0.341025;-0.708408
1363;13620;-8.432306;2.320357;4.655482;-0.643017;0.353337;-0.754309
1364;13630;-8.613159;2.516021;4.820805;-0.661931;0.291824;-0.728009
1365;13640;-8.778961;2.445695;4.928307;-0.715661;0.157406;-0.659782
1366;13650;-8.721037;2.189744;4.806280;-0.751260;0.045231;-0.611231
1367;13660;-8.612824;1.870249;4.733002;-0.748386;0.007887;-0.635965
1368;13670;-8.572543;1.840292;4.731799;-0.741165;-0.007301;-0.640181
1369;13680;-8.654217;1.714079;4.711800;-0.751278;-0.057899;-0.639523
1370;13690;-8.489849;1.606644;4.570357;-0.760650;-0.077732;-0.679788
1371;13700;-8.437521;1.687796;4.606515;-0.812752;-0.078688;-0.727093
1372;13710;-8.407681;1.597340;4.544766;-0.876703;-0.086578;-0.721078
1373;13720;-8.309466;1.342383;4.499160;-0.906889;-0.055742;-0.704948
1374;13730;-8.436831;1.168137;4.513672;-0.874591;-0.031595;-0.690555
1375;13740;-8.469733;1.135069;4.559821;-0.861608;-0.027572;-0.681236
1376;13750;-8.368955;0.962298;4.433086;-0.856421;-0.016316;-0.662970
1377;13760;-8.307008;0.851159;4.461243;-0.823127;0.006648;-0.635232
1378;13770;-8.492281;1.082121;4.641952;-0.794006;-0.020027;-0.543804
1379;13780;-8.688034;0.818763;4.624608;-0.782068;-0.070502;-0.445288
1380;13790;-8.852935;1.012733;4.897306;-0.843582;-0.091214;-0.494037
1381;13800;-8.899294;0.985020;4.990491;-1.070560;-0.111365;-0.635119
1382;13810;-8.669976;0.826782;4.967688;-1.300470;-0.151199;-0.712167
1383;13820;-8.661032;0.259411;4.900977;-1.444949;-0.225628;-0.783109
1384;13830;-8.487522;-0.223891;4.898477;-1.438935;-0.338240;-0.830540
1385;13840;-8.188107;-0.193084;4.854677;-1.423599;-0.399209;-0.863899
1386;13850;-7.902453;-0.603021;4.691435;-1.404317;-0.388466;-0.850643
1387;13860;-7.959912;-0.999404;4.812230;-1.310703;-0.360146;-0.822269
1388;13870;-8.132746;-1.052154;5.059016;-1.219085;-0.374609;-0.803464
1389;13880;-8.280716;-1.100560;5.180470;-1.153147;-0.397358;-0.795774
1390;13890;-8.325420;-1.035960;5.234224;-1.159285;-0.401140;-0.826754
1391;13900;-8.651622;-0.784451;5.457850;-1.218608;-0.442563;-0.857977
1392;13910;-8.811277;-0.643472;5.539054;-1.419254;-0.536391;-0.932411
1393;13920;-8.537428;-1.153876;5.356400;-1.559652;-0.619467;-1.029306
1394;13930;-8.327098;-1.338194;5.229120;-1.596338;-0.678808;-1.068308
1395;13940;-8.039544;-1.785948;4.997709;-1.556962;-0.684679;-1.053167
1396;13950;-7.947187;-2.096494;4.968998;-1.404151;-0.621181;-1.063193
1397;13960;-7.920279;-2.111962;5.032276;-1.265196;-0.563961;-1.051815
1398;13970;-7.954025;-2.283052;5.136688;-1.120352;-0.537598;-1.011354
1399;13980;-8.114525;-2.288884;5.272189;-0.983119;-0.561751;-0.999029
1400;13990;-8.301806;-2.167454;5.526150;-0.899404;-0.609916;-1.013813
1401;14000;-8.376781;-1.892598;5.836027;-0.961427;-0.704606;-1.099523
1402;14010;-8.410205;-1.816052;5.863691;-1.147909;-0.843680;-1.178973
1403;14020;-7.855799;-2.278576;5.501694;-1.285811;-0.956275;-1.231047
1404;14030;-7.209056;-3.020769;5.083811;-1.243192;-0.923249;-1.201804
1405;14040;-6.917621;-3.615398;4.820317;-0.977949;-0.799261;-1.122047
1406;14050;-6.838631;-3.672575;4.838699;-0.627569;-0.672041;-0.992500
1407;14060;-7.001262;-3.591730;5.012017;-0.315224;-0.559062;-0.852340
1408;14070;-7.651820;-3.147133;5.669646;-0.119998;-0.519094;-0.806308
1409;14080;-8.155854;-2.416461;6.102079;-0.218867;-0.654671;-0.891338
1410;14090;-8.076737;-2.503891;6.114416;-0.453147;-0.838536;-0.971363
1411;14100;-8.011120;-2.493238;6.124774;-0.690016;-1.005877;-1.128270
1412;14110;-7.626176;-2.446134;5.976851;-0.987275;-1.166883;-1.281458
1413;14120;-7.062404;-3.093995;5.483902;-1.182353;-1.257174;-1.324533
1414;14130;-6.525681;-4.028149;4.997037;-1.116968;-1.242894;-1.353195
1415;14140;-6.061830;-4.168108;4.979838;-0.845956;-1.160342;-1.286797
1416;14150;-6.095139;-3.788127;5.208849;-0.577686;-1.109937;-1.040026
1417;14160;-6.407524;-4.058091;5.345803;-0.345494;-1.127703;-0.779831
1418;14170;-6.250448;-4.222842;5.549719;-0.073484;-1.127951;-0.611411
1419;14180;-6.420728;-3.913868;5.865403;0.068041;-1.103200;-0.497226
1420;14190;-6.951516;-3.183279;6.504312;-0.089816;-1.091284;-0.553168
1421;14200;-7.349726;-2.516127;7.098248;-0.600430;-1.218820;-0.739752
1422;14210;-7.149680;-2.664529;7.083407;-1.245237;-1.464514;-0.861236
1423;14220;-6.509618;-3.704248;6.516441;-1.674421;-1.684437;-0.925680
1424;14230;-5.153193;-5.411575;5.551953;-1.596243;-1.710282;-0.859917
1425;14240;-4.699766;-6.358613;5.240582;-1.043125;-1.580906;-0.651277
1426;14250;-4.859825;-6.413035;5.369051;-0.379629;-1.440986;-0.460849
1427;14260;-5.097297;-5.398914;6.053159;0.039459;-1.279320;-0.334608
1428;14270;-5.959105;-4.588802;6.649768;0.049752;-1.268798;-0.341545
1429;14280;-5.509292;-4.607909;6.792329;-0.127903;-1.299254;-0.430403
1430;14290;-5.183011;-4.797900;6.725870;-0.254574;-1.217334;-0.489482
1431;14300;-5.336028;-4.872790;6.881527;-0.337446;-1.159894;-0.539790
1432;14310;-5.544462;-5.098568;7.049992;-0.368537;-1.227344;-0.601956
1433;14320;-5.274934;-5.290535;7.069195;-0.331864;-1.360630;-0.618971
1434;14330;-5.189616;-5.513890;7.036303;-0.233631;-1.510802;-0.580464
1435;14340;-4.329419;-5.642658;6.756092;-0.121475;-1.544772;-0.543920
1436;14350;-3.599913;-5.889307;6.279254;0.007584;-1.317981;-0.512884
1437;14360;-3.533932;-5.918493;6.339518;0.177114;-0.998247;-0.467112
1438;14370;-4.253694;-5.638875;6.899141;0.298896;-0.838541;-0.445594
1439;14380;-4.749999;-5.266709;7.424608;0.327522;-0.877102;-0.507024
1440;14390;-4.728668;-4.926778;7.676203;0.256810;-1.041824;-0.553693
1441;14400;-4.712204;-5.066629;7.786974;0.176655;-1.265428;-0.516348
1442;14410;-4.545207;-5.577735;7.726469;0.194261;-1.509916;-0.520772
1443;14420;-4.143427;-6.000007;7.568381;0.355796;-1.720666;-0.488420
1444;14430;-3.264156;-5.920167;7.246551;0.536990;-1.764758;-0.406830
1445;14440;-2.374641;-5.555703;7.114654;0.631653;-1.528797;-0.367400
1446;14450;-2.438003;-5.351630;7.121471;0.651639;-1.154556;-0.379008
1447;14460;-3.055704;-5.260078;7.442186;0.647964;-0.911204;-0.416939
1448;14470;-3.437855;-5.193729;7.720982;0.648324;-0.875686;-0.485466
1449;14480;-3.393463;-4.987919;7.984095;0.657664;-0.964367;-0.497348
1450;14490;-3.519569;-4.980914;8.182424;0.683300;-1.158188;-0.437853
1451;14500;-3.374658;-5.468371;8.071333;0.820474;-1.407336;-0.329587
1452;14510;-3.118637;-5.817796;8.095826;1.095049;-1.610758;-0.247476
1453;14520;-2.529088;-5.243303;8.158817;1.293391;-1.676612;-0.243390
1454;14530;-1.649593;-4.463145;8.070125;1.290071;-1.504727;-0.268345
1455;14540;-0.785571;-4.054452;7.748226;1.141402;-1.090247;-0.273755
1456;14550;-1.041320;-4.664599;7.510170;1.094665;-0.630270;-0.302626
1457;14560;-1.883374;-5.271346;7.611602;1.307818;-0.385274;-0.332758
1458;14570;-2.328497;-5.143216;8.037903;1.645682;-0.371445;-0.323692
1459;14580;-2.374714;-4.149457;8.701334;1.857396;-0.468916;-0.312036
1460;14590;-2.661217;-3.387585;9.228856;1.848120;-0.665202;-0.214635
1461;14600;-2.931727;-3.692276;9.358077;1.806616;-0.977535;-0.071129
1462;14610;-2.235518;-3.870921;9.130140;1.916643;-1.228242;0.071092
1463;14620;-1.066662;-3.299331;8.809557;2.045758;-1.219123;0.224065
1464;14630;-0.345781;-2.579099;8.590352;2.026128;-0.925530;0.332133
1465;14640;-0.145465;-2.395366;8.269849;1.910574;-0.457984;0.265944
1466;14650;-0.822624;-2.956986;8.113993;1.911909;-0.066986;0.201628
1467;14660;-1.770334;-3.322335;8.261096;2.098579;0.091058;0.110587
1468;14670;-1.970711;-3.109801;8.647501;2.366508;0.074899;0.006106
1469;14680;-2.297650;-2.180178;9.347349;2.605010;-0.102958;0.131084
1470;14690;-2.663837;-0.932472;10.167557;2.566083;-0.424285;0.298794
1471;14700;-2.352371;-0.612501;10.436286;2.342027;-0.775998;0.501994
1472;14710;-1.308643;-0.607097;10.002300;2.083682;-0.955182;0.724574
1473;14720;0.318447;-1.113225;9.049002;1.917410;-0.706902;0.766869
1474;14730;0.830403;-1.762574;8.241135;1.993724;-0.131737;0.667181
1475;14740;0.026874;-2.335189;7.731982;2.311731;0.435893;0.512177
1476;14750;-1.269227;-2.467108;7.813825;2.794979;0.764841;0.363858
1477;14760;-1.746474;-1.725450;8.262933;3.261736;0.904890;0.166791
1478;14770;-1.992412;0.562771;9.416800;3.478913;0.891324;0.044384
1479;14780;-3.211287;2.981308;10.682936;3.107847;0.571874;0.285979
1480;14790;-2.859625;3.152549;10.832202;2.423500;0.161259;0.573607
1481;14800;-1.732035;2.250641;10.243304;1.957960;-0.038091;0.806990
1482;14810;-0.898149;1.615234;9.414043;1.738616;0.051783;0.943401
1483;14820;0.265060;0.961803;8.217467;1.761227;0.458738;0.975715
1484;14830;-0.302664;0.844686;7.711383;1.993534;1.013255;1.022601
1485;14840;-1.791057;1.143730;7.926682;2.178901;1.388498;0.852433
1486;14850;-3.075167;1.087808;8.428618;2.340291;1.440816;0.546234
1487;14860;-3.546652;1.437257;8.998506;2.507393;1.236153;0.476622
1488;14870;-3.190471;2.350937;9.484328;2.570276;0.991621;0.478005
1489;14880;-2.803275;3.217133;9.915311;2.423314;0.833208;0.396964
1490;14890;-2.442672;3.720091;10.001721;2.087508;0.729113;0.355153
1491;14900;-1.782881;3.797333;9.650367;1.753273;0.750726;0.517880
1492;14910;-1.580449;3.898544;9.144998;1.493669;0.918621;0.699498
1493;14920;-2.570104;3.741922;8.932462;1.323133;1.031618;0.795625
1494;14930;-3.283162;3.615164;8.943195;1.158568;1.005901;0.788988
1495;14940;-3.154526;3.353321;8.727000;1.029784;0.936008;0.684339
1496;14950;-2.851798;3.205448;8.569497;1.015468;0.916259;0.694812
1497;14960;-2.951219;3.095625;8.505864;1.030423;0.925045;0.669259
1498;14970;-2.813246;2.786805;8.494969;1.080022;0.966363;0.491303
1499;14980;-2.585795;2.816668;8.383942;1.201633;1.050486;0.391557
1500;14990;-2.660453;3.119452;8.402096;1.358302;1.155133;0.470761
1501;15000;-3.058286;3.609918;8.575231;1.413404;1.214609;0.501817
1502;15010;-3.142465;3.750304;8.566458;1.363511;1.252741;0.437448
1503;15020;-3.247854;3.885883;8.422753;1.303869;1.287769;0.379365
1504;15030;-3.180517;4.076098;8.257709;1.248884;1.341771;0.328507
1505;15040;-4.059927;4.381276;8.473574;1.178797;1.299178;0.323454
1506;15050;-4.125044;4.529444;8.442909;1.017318;1.148680;0.276184
1507;15060;-3.662585;4.612672;8.271773;0.908990;1.071452;0.271867
1508;15070;-3.937872;4.697069;8.262371;0.837302;1.005809;0.340861
1509;15080;-4.229051;4.489841;8.137926;0.752300;0.909887;0.368112
1510;15090;-3.685530;3.784004;7.613712;0.774320;0.895770;0.267159
1511;15100;-3.152091;3.324328;7.095305;1.027273;1.069917;0.203506
1512;15110;-3.773298;3.791686;7.210475;1.330648;1.255576;0.090178
1513;15120;-4.295040;4.707172;7.445911;1.459454;1.308305;0.064982
1514;15130;-4.779797;5.577898;7.834809;1.386205;1.219653;0.121845
1515;15140;-4.948548;5.996643;8.005221;1.122034;1.041331;0.143568
1516;15150;-4.731515;5.715995;7.807855;0.842825;0.868766;0.184401
1517;15160;-4.160935;5.166736;7.299455;0.679255;0.824466;0.175227
1518;15170;-4.130857;4.893478;7.097438;0.661308;0.879215;0.146535
1519;15180;-4.281582;4.806925;6.922123;0.661216;0.930767;0.091644
1520;15190;-4.003225;4.054859;6.443644;0.740198;1.041841;0.010605
1521;15200;-3.688550;3.857437;6.138877;1.047610;1.293293;-0.086023
1522;15210;-4.805314;4.740912;6.511941;1.298521;1.442429;-0.103476
1523;15220;-5.261130;5.764830;7.022214;1.281251;1.398904;-0.157866
1524;15230;-5.736346;6.466122;7.435417;1.078066;1.228952;-0.120241
1525;15240;-5.877013;6.577925;7.506992;0.730538;0.954602;-0.062163
1526;15250;-5.100335;5.898543;6.950396;0.477911;0.814695;-0.045445
1527;15260;-4.856228;5.330170;6.446248;0.420531;0.845524;-0.087219
1528;15270;-4.954895;5.155822;6.161374;0.461510;0.917024;-0.153414
1529;15280;-4.775184;5.149255;5.806236;0.492294;1.041956;-0.190780
1530;15290;-4.955752;5.092688;5.635983;0.589154;1.208277;-0.269332
1531;15300;-5.756537;5.668384;5.950210;0.644398;1.222430;-0.258116
1532;15310;-5.903037;5.777308;6.065453;0.597667;1.099801;-0.203667
1533;15320;-5.802243;5.995877;6.077133;0.572228;1.023796;-0.199540
1534;15330;-6.171090;6.247474;6.089241;0.467852;0.899323;-0.153134
1535;15340;-5.811723;5.970666;5.846713;0.350682;0.798920;-0.170085
1536;15350;-5.548760;5.548591;5.467022;0.321947;0.819599;-0.199098
1537;15360;-5.808087;5.576097;5.472777;0.350873;0.835754;-0.221904
1538;15370;-5.860232;5.474231;5.351617;0.352364;0.809415;-0.264951
1539;15380;-5.769774;5.742106;5.353355;0.362733;0.806378;-0.289569
1540;15390;-6.270181;6.020870;5.542759;0.291801;0.731859;-0.292236
1541;15400;-6.286384;6.127210;5.512353;0.178674;0.614209;-0.318002
1542;15410;-6.355540;6.196876;5.545589;0.058093;0.504448;-0.337410
1543;15420;-6.255244;6.047950;5.322783;-0.047279;0.423806;-0.376059
1544;15430;-5.765122;5.745307;4.938134;-0.102414;0.482774;-0.422765
1545;15440;-5.876809;5.458308;4.808445;-0.082095;0.606142;-0.480555
1546;15450;-5.920278;5.435921;4.663207;-0.057095;0.707821;-0.537021
1547;15460;-5.893844;5.407571;4.536738;-0.024118;0.830948;-0.588033
1548;15470;-6.166084;5.680932;4.643004;-0.010461;0.923917;-0.627632
1549;15480;-6.608868;6.029562;4.834279;-0.061541;0.874030;-0.568935
1550;15490;-6.903285;6.071054;4.985299;-0.151455;0.735186;-0.502406
1551;15500;-6.908938;6.054092;5.029508;-0.247767;0.603567;-0.470124
1552;15510;-6.918334;5.860741;4.978646;-0.336122;0.518772;-0.469593
1553;15520;-6.820041;5.656400;4.894124;-0.398474;0.493124;-0.504261
1554;15530;-6.768067;5.481460;4.775521;-0.460683;0.502359;-0.540795
1555;15540;-6.660895;5.134452;4.630991;-0.500022;0.527430;-0.598557
1556;15550;-6.572891;4.691713;4.393872;-0.461970;0.582691;-0.642086
1557;15560;-6.484720;4.657656;4.308601;-0.396438;0.684818;-0.731531
1558;15570;-6.655479;4.802057;4.336868;-0.361751;0.755835;-0.781617
1559;15580;-6.921503;5.030218;4.421165;-0.360074;0.722013;-0.734890
1560;15590;-7.236896;5.064616;4.507163;-0.371961;0.546011;-0.604930
1561;15600;-7.231011;4.993358;4.476183;-0.398020;0.389776;-0.563817
1562;15610;-7.303477;5.315251;4.697984;-0.507735;0.309962;-0.557851
1563;15620;-7.242194;5.034116;4.441566;-0.705258;0.250931;-0.603311
1564;15630;-6.927777;4.268144;4.041694;-0.735935;0.303997;-0.614608
1565;15640;-6.934088;4.014809;3.945706;-0.618516;0.422423;-0.662299
1566;15650;-7.034245;4.123373;4.051221;-0.485486;0.563130;-0.694280
1567;15660;-7.322852;4.451030;4.325465;-0.457994;0.684498;-0.745975
1568;15670;-7.495745;4.648844;4.522829;-0.501134;0.736603;-0.785399
1569;15680;-7.961773;4.616459;4.772315;-0.573859;0.648743;-0.725970
1570;15690;-7.894335;4.378819;4.842002;-0.603320;0.508811;-0.672328
1571;15700;-7.739370;4.289668;4.789206;-0.608755;0.427542;-0.617655
1572;15710;-7.789085;4.077959;4.741600;-0.587331;0.395891;-0.589570
1573;15720;-7.811949;3.907419;4.725810;-0.550421;0.370689;-0.564215
1574;15730;-8.010069;3.811701;4.796698;-0.497519;0.362896;-0.574936
1575;15740;-8.123980;4.063158;4.918334;-0.511342;0.327811;-0.631065
1576;15750;-8.148503;3.937276;4.918113;-0.561141;0.301818;-0.699398
1577;15760;-8.118555;3.950029;4.847179;-0.617624;0.290725;-0.797240
1578;15770;-7.984039;3.887112;4.686275;-0.671942;0.304942;-0.847318
1579;15780;-8.123432;3.745379;4.648478;-0.661224;0.277800;-0.874933
1580;15790;-8.099557;3.754270;4.655061;-0.621543;0.186071;-0.831422
1581;15800;-8.108564;3.778349;4.630701;-0.581117;0.091418;-0.750421
1582;15810;-8.159355;3.709314;4.592491;-0.526930;0.030441;-0.667608
1583;15820;-8.370376;3.739408;4.681044;-0.504988;-0.017296;-0.623802
1584;15830;-8.565117;3.801793;4.844658;-0.539317;-0.060508;-0.694818
1585;15840;-8.525089;4.011530;4.931223;-0.684648;-0.096323;-0.758496
1586;15850;-8.582805;3.671317;4.862272;-0.844299;-0.114325;-0.819071
1587;15860;-8.522508;3.377554;4.908447;-0.934177;-0.129184;-0.924743
1588;15870;-8.208771;3.334283;4.788973;-1.011004;-0.122668;-0.993688
1589;15880;-8.247742;2.977009;4.735283;-1.026388;-0.101447;-1.021409
1590;15890;-8.244203;3.078203;4.822838;-1.012790;-0.128163;-1.047265
1591;15900;-8.432194;3.019760;4.929931;-1.037797;-0.208711;-1.001118
1592;15910;-8.302463;2.747725;4.894944;-1.033381;-0.298970;-0.915008
1593;15920;-8.131769;2.317534;4.707463;-0.942904;-0.318057;-0.840201
1594;15930;-8.195756;2.177493;4.744217;-0.785815;-0.269006;-0.762275
1595;15940;-8.448156;2.380271;4.917586;-0.665433;-0.236695;-0.738694
1596;15950;-8.644557;2.760675;5.081682;-0.669215;-0.271528;-0.696953
1597;15960;-8.618803;2.829960;5.077527;-0.756660;-0.327415;-0.667901
1598;15970;-8.666062;2.825577;5.035412;-0.888081;-0.366002;-0.676757
1599;15980;-8.723271;2.685380;5.053704;-1.039672;-0.393753;-0.710559
1600;15990;-8.646394;2.874785;5.114668;-1.231907;-0.434991;-0.716880
1601;16000;-8.567061;2.849387;5.194385;-1.483725;-0.484952;-0.733342
1602;16010;-8.543637;2.411751;5.143642;-1.742903;-0.509937;-0.732096
1603;16020;-8.324697;1.780982;5.161195;-1.890258;-0.554187;-0.801478
1604;16030;-8.123193;1.143488;5.090152;-1.921747;-0.620419;-0.790322
1605;16040;-7.742358;0.545306;4.988387;-1.835447;-0.637350;-0.779395
1606;16050;-7.480842;0.109141;4.915460;-1.644239;-0.575849;-0.743713
1607;16060;-7.373244;-0.142616;4.831840;-1.414363;-0.470700;-0.696941
1608;16070;-7.490653;-0.173102;4.975362;-1.178942;-0.360609;-0.648175
1609;16080;-7.684137;0.218247;5.219130;-1.062132;-0.263858;-0.632178
1610;16090;-7.740778;0.121106;5.351333;-1.029028;-0.207000;-0.651543
1611;16100;-7.837936;-0.022383;5.522268;-0.991608;-0.212731;-0.629992
1612;16110;-7.892966;-0.088798;5.645784;-0.975185;-0.260560;-0.634596
1613;16120;-8.189841;0.335008;6.099028;-1.048850;-0.361153;-0.627499
1614;16130;-8.237152;0.234185;6.096011;-1.266197;-0.539855;-0.684104
1615;16140;-7.802592;-0.325944;5.713123;-1.401581;-0.680229;-0.704257
1616;16150;-7.492354;-0.747911;5.393568;-1.402589;-0.713027;-0.716212
1617;16160;-7.148340;-1.213591;5.107022;-1.298729;-0.640278;-0.692278
1618;16170;-7.055090;-1.595649;5.015981;-1.081247;-0.506058;-0.659677
1619;16180;-7.080522;-1.653965;5.068610;-0.838685;-0.334824;-0.612963
1620;16190;-7.169941;-1.483606;5.210534;-0.634283;-0.152993;-0.570142
1621;16200;-7.837384;-0.944016;5.831299;-0.551724;-0.101635;-0.544698
1622;16210;-8.083554;-0.774790;6.126622;-0.620330;-0.207940;-0.556640
1623;16220;-7.910089;-0.886634;6.055676;-0.698842;-0.305617;-0.560936
1624;16230;-8.125610;-0.628406;6.208645;-0.803383;-0.400736;-0.602250
1625;16240;-8.332104;-0.264865;6.418059;-1.041821;-0.583369;-0.665536
1626;16250;-8.052709;-0.774736;6.121690;-1.293537;-0.784032;-0.745696
1627;16260;-7.612611;-1.537849;5.674302;-1.366049;-0.881363;-0.835688
1628;16270;-7.341545;-1.939814;5.393132;-1.279031;-0.856248;-0.912903
1629;16280;-7.206152;-2.059850;5.461095;-1.116456;-0.764009;-0.932613
1630;16290;-6.966468;-2.151051;5.490765;-0.959592;-0.651232;-0.869644
1631;16300;-6.954351;-2.421008;5.567554;-0.781970;-0.463197;-0.799085
1632;16310;-6.964610;-2.559903;5.823088;-0.580579;-0.272747;-0.789270
1633;16320;-7.190671;-2.591174;6.174859;-0.408811;-0.165960;-0.772594
1634;16330;-7.220650;-2.610966;6.384398;-0.260594;-0.150551;-0.745972
1635;16340;-7.539683;-2.126416;6.869323;-0.218888;-0.203966;-0.746521
1636;16350;-7.621200;-1.599062;7.014568;-0.419222;-0.331488;-0.810127
1637;16360;-7.392090;-1.797127;6.850611;-0.701482;-0.429910;-0.887410
1638;16370;-7.058785;-2.231451;6.569500;-0.892305;-0.475815;-0.937085
1639;16380;-6.710650;-2.767381;6.255875;-0.923502;-0.488349;-0.928194
1640;16390;-6.529527;-3.253952;6.146907;-0.806984;-0.463122;-0.888541
1641;16400;-6.417652;-3.354124;6.133948;-0.581839;-0.402105;-0.824912
1642;16410;-6.482549;-3.413066;6.209935;-0.348813;-0.357169;-0.694337
1643;16420;-6.705483;-3.233141;6.392327;-0.141852;-0.327634;-0.596670
1644;16430;-6.668705;-3.205265;6.434853;-0.005560;-0.331336;-0.508389
1645;16440;-6.892328;-2.914652;6.743497;0.110564;-0.379215;-0.396895
1646;16450;-7.482997;-2.656768;7.080886;0.062810;-0.556319;-0.384728
1647;16460;-7.210492;-2.782615;7.080158;-0.050359;-0.738554;-0.452932
1648;16470;-6.892836;-3.020383;6.903034;-0.149237;-0.864632;-0.516483
1649;16480;-6.495819;-3.271107;6.692223;-0.150043;-0.951576;-0.502836
1650;16490;-6.253056;-3.298116;6.587993;-0.085311;-1.004833;-0.417331
1651;16500;-5.997896;-3.483458;6.434225;0.018981;-0.991858;-0.316428
1652;16510;-5.925466;-3.595583;6.409073;0.163827;-0.903073;-0.273900
1653;16520;-5.977761;-3.633866;6.495277;0.342251;-0.847772;-0.232219
1654;16530;-6.030456;-3.673693;6.772302;0.534500;-0.864558;-0.155271
1655;16540;-6.199415;-3.605054;7.061752;0.728029;-0.950374;-0.088472
1656;16550;-6.339999;-3.511935;7.383849;0.904722;-1.087562;-0.031846
1657;16560;-6.379529;-3.102399;7.730297;1.006130;-1.249658;-0.005565
1658;16570;-6.338043;-2.892868;7.996340;0.990529;-1.427132;-0.001533
1659;16580;-6.104124;-2.630165;8.036725;0.897263;-1.542255;0.005782
1660;16590;-5.817459;-2.638777;7.896261;0.795120;-1.595729;0.012989
1661;16600;-5.368789;-2.613622;7.639186;0.741975;-1.597598;0.088225
1662;16610;-4.958823;-2.823435;7.226017;0.760141;-1.471314;0.197989
1663;16620;-4.646476;-3.213218;7.046024;0.900052;-1.201574;0.182520
1664;16630;-4.637960;-2.934851;7.094526;1.099576;-0.917078;0.150816
1665;16640;-4.969404;-2.429194;7.435552;1.246256;-0.736906;0.179589
1666;16650;-5.266345;-2.230956;7.618939;1.336328;-0.664814;0.205872
1667;16660;-5.281951;-1.869772;8.040975;1.402926;-0.674977;0.235874
1668;16670;-5.600311;-1.439761;8.365356;1.377850;-0.778860;0.313187
1669;16680;-5.448232;-1.338532;8.495234;1.280384;-0.894907;0.351092
1670;16690;-5.066040;-1.235615;8.451272;1.160418;-0.964217;0.417015
1671;16700;-4.774079;-1.151094;8.408708;1.032767;-0.954980;0.506109
1672;16710;-4.311670;-1.377459;8.042244;0.919684;-0.808645;0.564075
1673;16720;-4.080009;-1.617517;7.772645;0.881997;-0.562985;0.587573
1674;16730;-4.114754;-1.937321;7.656826;0.946618;-0.297671;0.578036
1675;16740;-4.506533;-1.877041;7.806476;1.088403;-0.141067;0.575631
1676;16750;-4.847011;-1.897809;8.115767;1.260346;-0.126947;0.555012
1677;16760;-5.039338;-1.770244;8.416626;1.441260;-0.220190;0.559221
1678;16770;-4.951822;-1.652505;8.609484;1.618826;-0.334750;0.564999
1679;16780;-4.738731;-1.274175;8.830092;1.728336;-0.400072;0.563663
1680;16790;-4.536544;-0.799533;8.915192;1.731965;-0.399064;0.558923
1681;16800;-4.209316;-0.412674;8.835389;1.617080;-0.302593;0.536816
1682;16810;-4.009934;-0.158295;8.645918;1.425308;-0.135809;0.530721
1683;16820;-4.075432;-0.187586;8.490227;1.250224;0.004617;0.580857
1684;16830;-4.023966;-0.275284;8.322074;1.158185;0.134450;0.655040
1685;16840;-3.948977;-0.321551;8.166084;1.175248;0.262298;0.755605
1686;16850;-4.325826;-0.433865;8.163880;1.284159;0.331337;0.881030
1687;16860;-4.341844;-0.249416;8.215487;1.413750;0.386248;0.946033
1688;16870;-4.467429;-0.133744;8.297635;1.524251;0.470366;0.936079
1689;16880;-4.836412;0.220126;8.507658;1.567056;0.512083;0.843428
1690;16890;-4.920572;0.675320;8.756934;1.509528;0.493061;0.764820
1691;16900;-4.969515;1.240653;8.809999;1.347460;0.428705;0.735492
1692;16910;-4.932139;1.528333;8.795121;1.109365;0.359739;0.778918
1693;16920;-4.858311;1.476026;8.614302;0.896387;0.329488;0.826606
1694;16930;-4.801367;1.446332;8.339267;0.774262;0.319671;0.893938
1695;16940;-4.823823;1.321619;8.167803;0.712184;0.327067;0.961823
1696;16950;-4.599154;1.198433;7.931586;0.736316;0.407667;1.002349
1697;16960;-4.628929;1.401183;7.747020;0.817577;0.531492;1.081134
1698;16970;-5.091441;1.500040;7.696986;0.876198;0.610971;1.091098
1699;16980;-5.227879;1.696596;7.773531;0.888251;0.639415;1.011395
1700;16990;-5.449962;1.954504;7.879521;0.852827;0.590718;0.887456
1701;17000;-5.678187;2.122403;8.051044;0.775650;0.476361;0.820867
1702;17010;-5.436488;2.342371;8.054257;0.681420;0.362155;0.744867
1703;17020;-5.158299;2.361274;7.921408;0.572913;0.308495;0.721123
1704;17030;-4.968920;2.268654;7.737863;0.504618;0.330616;0.712338
1705;17040;-4.929860;2.003375;7.473686;0.501786;0.384770;0.705544
1706;17050;-4.667468;1.613536;7.184477;0.601795;0.493141;0.654784
1707;17060;-4.115426;1.260624;6.717645;0.851348;0.737443;0.620551
1708;17070;-4.520750;1.494391;6.755730;1.189976;1.014264;0.535885
1709;17080;-5.183320;2.267399;7.181957;1.409989;1.152679;0.443054
1710;17090;-5.528132;2.892367;7.554124;1.469667;1.139803;0.439201
1711;17100;-5.773502;3.367904;7.741666;1.375863;1.022597;0.462350
1712;17110;-5.856994;3.474764;7.795224;1.207538;0.885154;0.414196
1713;17120;-5.557829;3.615841;7.630696;1.019131;0.792089;0.338136
1714;17130;-5.527065;3.603572;7.409726;0.854233;0.751507;0.322719
1715;17140;-5.485040;3.254717;7.112071;0.766021;0.730711;0.271863
1716;17150;-5.307651;2.944788;6.820896;0.814115;0.762343;0.284631
1717;17160;-5.519023;2.858653;6.754492;0.941188;0.805005;0.283542
1718;17170;-5.440806;2.895119;6.585760;1.103151;0.861795;0.258029
1719;17180;-5.807235;3.260109;6.765569;1.261391;0.890301;0.290982
1720;17190;-6.129768;3.863167;6.907759;1.280295;0.846309;0.260448
1721;17200;-6.131388;4.363224;7.040728;1.147921;0.791305;0.196898
1722;17210;-6.154782;4.276095;6.939466;0.949649;0.733396;0.206417
1723;17220;-5.689612;3.653828;6.405688;0.879791;0.778522;0.194884
1724;17230;-5.844663;3.638158;6.296099;0.959435;0.891797;0.161843
1725;17240;-6.310252;3.920005;6.421460;0.986970;0.902814;0.105621
1726;17250;-6.232977;4.050250;6.421848;0.953891;0.860846;0.070568
1727;17260;-5.995310;4.107403;6.215863;0.900772;0.918551;0.011048
1728;17270;-6.194348;4.368626;6.229273;0.828613;1.004343;-0.055856
1729;17280;-6.598371;4.403831;6.266778;0.706697;0.985496;-0.052469
1730;17290;-6.476511;4.091479;6.158591;0.653192;0.952481;-0.063662
1731;17300;-6.557178;4.197613;6.191513;0.655696;0.947578;-0.099325
1732;17310;-6.641039;3.862496;6.041716;0.649807;0.932535;-0.146130
1733;17320;-6.323983;3.553444;5.814170;0.771790;1.008273;-0.164449
1734;17330;-6.621618;3.982809;5.873560;0.894230;1.100752;-0.202817
1735;17340;-6.686496;4.411205;5.814233;0.866526;1.151389;-0.235970
1736;17350;-6.822257;4.551113;5.675809;0.791197;1.221222;-0.254121
1737;17360;-7.250304;4.867067;5.875326;0.672231;1.214710;-0.309096
1738;17370;-7.549310;5.104030;5.947878;0.488190;1.089448;-0.333362
1739;17380;-7.562760;5.017663;5.822938;0.290453;0.900938;-0.300217
1740;17390;-7.334818;4.487491;5.475512;0.201221;0.790539;-0.287826
1741;17400;-7.399411;4.496000;5.373540;0.207420;0.738247;-0.294427
1742;17410;-7.539636;4.530914;5.311260;0.179412;0.672340;-0.302371
1743;17420;-7.290618;4.334392;5.020183;0.146981;0.634849;-0.334389
1744;17430;-7.334149;4.375289;5.013129;0.144636;0.611886;-0.329048
1745;17440;-7.529223;4.442516;5.046479;0.105593;0.531324;-0.336646
1746;17450;-7.518874;4.496256;5.065768;0.011251;0.436281;-0.366932
1747;17460;-7.453082;4.414386;4.953481;-0.077697;0.385768;-0.424406
1748;17470;-7.506455;4.424918;4.961074;-0.180020;0.332159;-0.457814
1749;17480;-7.369452;4.085782;4.807598;-0.259767;0.291073;-0.479946
1750;17490;-7.235578;3.722887;4.711516;-0.253456;0.292325;-0.505639
1751;17500;-7.268525;3.674394;4.698856;-0.229334;0.303059;-0.518486
1752;17510;-7.352823;3.720430;4.760981;-0.216168;0.299558;-0.520079
1753;17520;-7.516356;3.677897;4.799350;-0.232447;0.273577;-0.536798
1754;17530;-7.584866;3.719297;4.812897;-0.260382;0.242536;-0.545301
1755;17540;-7.741953;3.750318;4.847935;-0.288643;0.201707;-0.547656
1756;17550;-7.790905;3.604291;4.837237;-0.306720;0.152467;-0.555771
1757;17560;-7.681782;3.439102;4.796633;-0.289758;0.150639;-0.579007
1758;17570;-7.799868;3.507602;4.848822;-0.261786;0.174326;-0.610997
1759;17580;-7.892246;3.415989;4.812183;-0.246189;0.153312;-0.631759
1760;17590;-7.780171;3.328191;4.725208;-0.194275;0.170646;-0.654627
1761;17600;-7.896673;3.503915;4.779685;-0.173320;0.194694;-0.690160
1762;17610;-8.102138;3.613090;4.873509;-0.203620;0.161430;-0.725341
1763;17620;-8.138848;3.591571;4.850271;-0.265825;0.078177;-0.749879
1764;17630;-7.990845;3.416115;4.644041;-0.317862;0.031906;-0.771017
1765;17640;-7.940341;3.247695;4.453577;-0.333145;0.045310;-0.820293
1766;17650;-8.090938;3.294746;4.429231;-0.325607;0.054200;-0.852675
1767;17660;-8.171725;3.273788;4.517099;-0.325320;0.019337;-0.884380
1768;17670;-8.272757;3.212816;4.645209;-0.346424;-0.025310;-0.922002
1769;17680;-8.298925;3.149092;4.710123;-0.389809;-0.059587;-1.001733
1770;17690;-8.291141;3.231215;4.735793;-0.458830;-0.085931;-1.042941
1771;17700;-8.321893;3.235055;4.806772;-0.529097;-0.157626;-1.029293
1772;17710;-8.391385;3.069686;4.843684;-0.565538;-0.272966;-0.977954
1773;17720;-8.099399;2.811326;4.606746;-0.567133;-0.324047;-0.947380
1774;17730;-7.903845;2.596666;4.464610;-0.510293;-0.259642;-0.928138
1775;17740;-7.958794;2.504980;4.458409;-0.432689;-0.177002;-0.898752
1776;17750;-8.221863;2.356642;4.649208;-0.350717;-0.110374;-0.892152
1777;17760;-8.614223;2.503666;5.014689;-0.314247;-0.109857;-0.963030
1778;17770;-8.727982;2.927401;5.297094;-0.414225;-0.166404;-1.057685
1779;17780;-8.747183;2.837173;5.346162;-0.579586;-0.248671;-1.094792
1780;17790;-8.896999;2.314732;5.305795;-0.702803;-0.322548;-1.206823
1781;17800;-8.639136;2.287485;5.372593;-0.780789;-0.370956;-1.391197
1782;17810;-8.370076;2.560948;5.428772;-0.912062;-0.424064;-1.419785
1783;17820;-8.392514;2.382392;5.440236;-1.052484;-0.509496;-1.334481
1784;17830;-8.224892;1.825912;5.293573;-1.094947;-0.583240;-1.277472
1785;17840;-8.135298;1.424880;5.195893;-1.049195;-0.589500;-1.248763
1786;17850;-8.252390;1.320848;5.260926;-0.984110;-0.562853;-1.284322
1787;17860;-8.075822;1.397968;5.222501;-0.987631;-0.504129;-1.336847
1788;17870;-8.088684;1.130455;5.215639;-1.001455;-0.444125;-1.318358
1789;17880;-8.295781;0.874951;5.313295;-0.981113;-0.422822;-1.353699
1790;17890;-8.132873;1.029920;5.463397;-0.966967;-0.425417;-1.365869
1791;17900;-8.141541;1.248478;5.510101;-1.027692;-0.459413;-1.280541
1792;17910;-7.990488;0.873196;5.409981;-1.076776;-0.486283;-1.168440
1793;17920;-7.866033;0.565705;5.397445;-1.063890;-0.459776;-1.080610
1794;17930;-8.014065;0.382647;5.355814;-1.002396;-0.446065;-0.978853
1795;17940;-8.197998;0.257464;5.584968;-0.913850;-0.491870;-0.855710
